gX,gY,gZ,aX,aY,aZ
8.605957,-30.944824,18.676758,0.974609,-0.146851,0.052734
8.605957,-30.944824,18.676758,0.974609,-0.146851,0.052734
6.713867,-30.151367,18.310547,0.977417,-0.159912,0.041138
6.713867,-30.151367,18.310547,0.977417,-0.159912,0.041138
5.432129,-29.357910,17.883301,0.978760,-0.168213,0.034668
5.432129,-29.357910,17.883301,0.978760,-0.168213,0.034668
5.432129,-29.357910,17.883301,0.978760,-0.168213,0.034668
4.150391,-28.564453,17.395020,0.981079,-0.169678,0.026611
4.150391,-28.564453,17.395020,0.981079,-0.169678,0.026611
2.075195,-27.709961,16.906738,0.982544,-0.167480,0.016479
2.075195,-27.709961,16.906738,0.982544,-0.167480,0.016479
2.075195,-27.709961,16.906738,0.982544,-0.167480,0.016479
-1.159668,-26.794434,16.296387,0.984253,-0.165649,0.008667
-1.159668,-26.794434,16.296387,0.984253,-0.165649,0.008667
-5.371094,-25.939941,15.441895,0.985718,-0.167725,0.007202
-5.371094,-25.939941,15.441895,0.985718,-0.167725,0.007202
-9.521484,-25.085449,14.587402,0.984863,-0.172485,0.011230
-9.521484,-25.085449,14.587402,0.984863,-0.172485,0.011230
-9.521484,-25.085449,14.587402,0.984863,-0.172485,0.011230
-12.573242,-24.353027,13.916016,0.983154,-0.176636,0.014771
-12.573242,-24.353027,13.916016,0.983154,-0.176636,0.014771
-13.793945,-23.742676,13.488770,0.983643,-0.181763,0.016724
-13.793945,-23.742676,13.488770,0.983643,-0.181763,0.016724
-12.817383,-23.193359,13.366699,0.986206,-0.188110,0.012939
-12.817383,-23.193359,13.366699,0.986206,-0.188110,0.012939
-12.817383,-23.193359,13.366699,0.986206,-0.188110,0.012939
-9.887695,-22.705078,13.549805,0.987061,-0.193481,0.006958
-9.887695,-22.705078,13.549805,0.987061,-0.193481,0.006958
-5.554199,-22.277832,13.916016,0.987183,-0.192749,0.006226
-5.554199,-22.277832,13.916016,0.987183,-0.192749,0.006226
-5.554199,-22.277832,13.916016,0.987061,-0.186035,0.007202
-1.220703,-21.850586,14.404297,0.987061,-0.186035,0.007202
-1.220703,-21.850586,14.404297,0.987061,-0.186035,0.007202
2.136230,-21.423340,14.770508,0.987549,-0.179810,0.005005
2.136230,-21.423340,14.770508,0.987549,-0.179810,0.005005
4.089355,-20.935059,15.014648,0.988892,-0.174316,0.001099
4.089355,-20.935059,15.014648,0.988892,-0.174316,0.001099
4.089355,-20.935059,15.014648,0.988892,-0.174316,0.001099
4.394531,-20.324707,15.075684,0.989136,-0.163818,-0.006714
4.394531,-20.324707,15.075684,0.989136,-0.163818,-0.006714
2.380371,-19.653320,14.953613,0.990967,-0.149780,-0.016846
2.380371,-19.653320,14.953613,0.990967,-0.149780,-0.016846
-2.075195,-18.859863,14.526367,0.993408,-0.138062,-0.019165
-2.075195,-18.859863,14.526367,0.993408,-0.138062,-0.019165
-2.075195,-18.859863,14.526367,0.993408,-0.138062,-0.019165
-8.178711,-18.188477,13.916016,0.992432,-0.133667,-0.010986
-8.178711,-18.188477,13.916016,0.992432,-0.133667,-0.010986
-14.465332,-17.578125,13.244629,0.988770,-0.136230,0.001831
-14.465332,-17.578125,13.244629,0.988770,-0.136230,0.001831
-14.465332,-17.578125,13.244629,0.986450,-0.145508,0.011108
-19.592285,-17.150879,12.756348,0.986450,-0.145508,0.011108
-19.592285,-17.150879,12.756348,0.986450,-0.145508,0.011108
-22.399902,-16.784668,12.451172,0.985718,-0.161255,0.014893
-22.399902,-16.784668,12.451172,0.985718,-0.161255,0.014893
-22.827148,-16.662598,12.512207,0.983398,-0.177124,0.016724
-22.827148,-16.662598,12.512207,0.983398,-0.177124,0.016724
-22.827148,-16.662598,12.512207,0.983398,-0.177124,0.016724
-21.423340,-16.601562,12.695312,0.981934,-0.188965,0.018799
-21.423340,-16.601562,12.695312,0.981934,-0.188965,0.018799
-18.981934,-16.540527,13.061523,0.980225,-0.194214,0.019531
-18.981934,-16.540527,13.061523,0.980225,-0.194214,0.019531
-16.418457,-16.540527,13.366699,0.979248,-0.193848,0.017700
-16.418457,-16.540527,13.366699,0.979248,-0.193848,0.017700
-16.418457,-16.540527,13.366699,0.979248,-0.193848,0.017700
-14.709473,-16.540527,13.671875,0.979858,-0.190430,0.013550
-14.709473,-16.540527,13.671875,0.979858,-0.190430,0.013550
-14.160156,-16.479492,13.793945,0.979492,-0.190308,0.008545
-14.160156,-16.479492,13.793945,0.979492,-0.190308,0.008545
-14.160156,-16.479492,13.793945,0.979370,-0.192627,0.007202
-14.404297,-16.357422,13.793945,0.979370,-0.192627,0.007202
-14.404297,-16.357422,13.793945,0.979370,-0.192627,0.007202
-14.709473,-16.296387,13.793945,0.978516,-0.196899,0.006958
-14.709473,-16.296387,13.793945,0.978516,-0.196899,0.006958
-14.892578,-16.174316,13.793945,0.976562,-0.205322,0.005981
-14.892578,-16.174316,13.793945,0.976562,-0.205322,0.005981
-14.892578,-16.174316,13.793945,0.976562,-0.205322,0.005981
-14.709473,-16.174316,13.793945,0.974976,-0.214233,0.007446
-14.709473,-16.174316,13.793945,0.974976,-0.214233,0.007446
-13.977051,-16.235352,13.854980,0.974365,-0.223145,0.008789
-13.977051,-16.235352,13.854980,0.974365,-0.223145,0.008789
-13.000488,-16.357422,13.916016,0.973877,-0.230225,0.005249
-13.000488,-16.357422,13.916016,0.973877,-0.230225,0.005249
-13.000488,-16.357422,13.916016,0.973877,-0.230225,0.005249
-12.329102,-16.357422,13.916016,0.972534,-0.234619,0.001343
-12.329102,-16.357422,13.916016,0.972534,-0.234619,0.001343
-12.207031,-16.357422,13.793945,0.971680,-0.232910,-0.000854
-12.207031,-16.357422,13.793945,0.971680,-0.232910,-0.000854
-12.207031,-16.357422,13.793945,0.972046,-0.227417,-0.005615
-13.366699,-16.357422,13.549805,0.972046,-0.227417,-0.005615
-13.366699,-16.357422,13.549805,0.972046,-0.227417,-0.005615
-15.563965,-16.235352,13.183594,0.972412,-0.226807,-0.010864
-15.563965,-16.235352,13.183594,0.972412,-0.226807,-0.010864
-18.188477,-16.174316,12.817383,0.971191,-0.229614,-0.012329
-18.188477,-16.174316,12.817383,0.971191,-0.229614,-0.012329
-18.188477,-16.174316,12.817383,0.971191,-0.229614,-0.012329
-20.568848,-16.174316,12.390137,0.968140,-0.232178,-0.011597
-20.568848,-16.174316,12.390137,0.968140,-0.232178,-0.011597
-22.399902,-16.296387,12.023926,0.967041,-0.235962,-0.012451
-22.399902,-16.296387,12.023926,0.967041,-0.235962,-0.012451
-23.498535,-16.357422,11.840820,0.967163,-0.238525,-0.013794
-23.498535,-16.357422,11.840820,0.967163,-0.238525,-0.013794
-23.498535,-16.357422,11.840820,0.967163,-0.238525,-0.013794
-23.742676,-16.479492,11.718750,0.965942,-0.239380,-0.013550
-23.742676,-16.479492,11.718750,0.965942,-0.239380,-0.013550
-23.071289,-16.662598,11.718750,0.964722,-0.242065,-0.012695
-23.071289,-16.662598,11.718750,0.964722,-0.242065,-0.012695
-23.071289,-16.662598,11.718750,0.963013,-0.245361,-0.011108
-21.545410,-16.906738,11.901855,0.963013,-0.245361,-0.011108
-21.545410,-16.906738,11.901855,0.963013,-0.245361,-0.011108
-19.226074,-17.211914,12.145996,0.960571,-0.246704,-0.010498
-19.226074,-17.211914,12.145996,0.960571,-0.246704,-0.010498
-17.150879,-17.578125,12.451172,0.959595,-0.245361,-0.016357
-17.150879,-17.578125,12.451172,0.959595,-0.245361,-0.016357
-17.150879,-17.578125,12.451172,0.959595,-0.245361,-0.016357
-16.784668,-17.700195,12.512207,0.961670,-0.241821,-0.029175
-16.784668,-17.700195,12.512207,0.961670,-0.241821,-0.029175
-19.226074,-17.822266,12.145996,0.963257,-0.236572,-0.039795
-19.226074,-17.822266,12.145996,0.963257,-0.236572,-0.039795
-24.658203,-17.761230,11.413574,0.962036,-0.234863,-0.045166
-24.658203,-17.761230,11.413574,0.962036,-0.234863,-0.045166
-24.658203,-17.761230,11.413574,0.962036,-0.234863,-0.045166
-31.860352,-17.700195,10.375977,0.960327,-0.240479,-0.049316
-31.860352,-17.700195,10.375977,0.960327,-0.240479,-0.049316
-39.550781,-17.700195,9.155273,0.958130,-0.250488,-0.054199
-39.550781,-17.700195,9.155273,0.958130,-0.250488,-0.054199
-39.550781,-17.700195,9.155273,0.957397,-0.265869,-0.061523
-46.142578,-17.578125,8.056641,0.957397,-0.265869,-0.061523
-46.142578,-17.578125,8.056641,0.957397,-0.265869,-0.061523
-50.231934,-17.700195,7.141113,0.957031,-0.282837,-0.067505
-50.231934,-17.700195,7.141113,0.957031,-0.282837,-0.067505
-51.147461,-17.822266,6.591797,0.956543,-0.293701,-0.072144
-51.147461,-17.822266,6.591797,0.956543,-0.293701,-0.072144
-51.147461,-17.822266,6.591797,0.956543,-0.293701,-0.072144
-49.743652,-18.066406,6.286621,0.956787,-0.300171,-0.083984
-49.743652,-18.066406,6.286621,0.956787,-0.300171,-0.083984
-47.363281,-18.188477,6.225586,0.958130,-0.306885,-0.103149
-47.363281,-18.188477,6.225586,0.958130,-0.306885,-0.103149
-44.860840,-18.127441,6.042480,0.960938,-0.317017,-0.127075
-44.860840,-18.127441,6.042480,0.960938,-0.317017,-0.127075
-44.860840,-18.127441,6.042480,0.960938,-0.317017,-0.127075
-42.236328,-18.066406,5.859375,0.963013,-0.321899,-0.147949
-42.236328,-18.066406,5.859375,0.963013,-0.321899,-0.147949
-39.672852,-17.944336,5.676270,0.963989,-0.315063,-0.158936
-39.672852,-17.944336,5.676270,0.963989,-0.315063,-0.158936
-39.672852,-17.944336,5.676270,0.963867,-0.300049,-0.163330
-37.475586,-17.761230,5.554199,0.963867,-0.300049,-0.163330
-37.475586,-17.761230,5.554199,0.963867,-0.300049,-0.163330
-36.315918,-17.517090,5.432129,0.963989,-0.281006,-0.164429
-36.315918,-17.517090,5.432129,0.963989,-0.281006,-0.164429
-36.560059,-17.272949,5.249023,0.963745,-0.262207,-0.165039
-36.560059,-17.272949,5.249023,0.963745,-0.262207,-0.165039
-36.560059,-17.272949,5.249023,0.963745,-0.262207,-0.165039
-38.696289,-17.028809,4.821777,0.961426,-0.238647,-0.163086
-38.696289,-17.028809,4.821777,0.961426,-0.238647,-0.163086
-42.968750,-16.784668,4.394531,0.959106,-0.210449,-0.151367
-42.968750,-16.784668,4.394531,0.959106,-0.210449,-0.151367
-48.400879,-16.723633,3.906250,0.955933,-0.183594,-0.131226
-48.400879,-16.723633,3.906250,0.955933,-0.183594,-0.131226
-48.400879,-16.723633,3.906250,0.955933,-0.183594,-0.131226
-53.894043,-16.784668,3.540039,0.951782,-0.161865,-0.115112
-53.894043,-16.784668,3.540039,0.951782,-0.161865,-0.115112
-58.166504,-17.028809,3.417969,0.951050,-0.159180,-0.114990
-58.166504,-17.028809,3.417969,0.951050,-0.159180,-0.114990
-58.166504,-17.028809,3.417969,0.953003,-0.183350,-0.135742
-59.997559,-17.272949,3.540039,0.953003,-0.183350,-0.135742
-59.997559,-17.272949,3.540039,0.953003,-0.183350,-0.135742
-58.776855,-17.456055,3.845215,0.957886,-0.229736,-0.177979
-58.776855,-17.456055,3.845215,0.957886,-0.229736,-0.177979
-54.443359,-17.333984,4.150391,0.966919,-0.291382,-0.240845
-54.443359,-17.333984,4.150391,0.966919,-0.291382,-0.240845
-54.443359,-17.333984,4.150391,0.966919,-0.291382,-0.240845
-47.729492,-16.845703,4.516602,0.972900,-0.350342,-0.308350
-47.729492,-16.845703,4.516602,0.972900,-0.350342,-0.308350
-39.428711,-15.991211,4.760742,0.979370,-0.388672,-0.356812
-39.428711,-15.991211,4.760742,0.979370,-0.388672,-0.356812
-30.273438,-15.014648,4.943848,0.990234,-0.410034,-0.373291
-30.273438,-15.014648,4.943848,0.990234,-0.410034,-0.373291
-30.273438,-15.014648,4.943848,0.990234,-0.410034,-0.373291
-21.362305,-14.099121,5.004883,1.006836,-0.419312,-0.341187
-21.362305,-14.099121,5.004883,1.006836,-0.419312,-0.341187
-14.526367,-13.427734,4.455566,1.052856,-0.406738,-0.248047
-14.526367,-13.427734,4.455566,1.052856,-0.406738,-0.248047
-14.526367,-13.427734,4.455566,1.133545,-0.364990,-0.130371
-13.061523,-12.329102,2.441406,1.133545,-0.364990,-0.130371
-13.061523,-12.329102,2.441406,1.133545,-0.364990,-0.130371
-18.188477,-10.803223,-1.037598,1.205811,-0.312866,-0.054199
-18.188477,-10.803223,-1.037598,1.205811,-0.312866,-0.054199
-29.479980,-8.544922,-5.859375,1.250732,-0.279907,-0.047852
-29.479980,-8.544922,-5.859375,1.250732,-0.279907,-0.047852
-29.479980,-8.544922,-5.859375,1.250732,-0.279907,-0.047852
-44.189453,-5.615234,-11.108398,1.276611,-0.274414,-0.071289
-44.189453,-5.615234,-11.108398,1.276611,-0.274414,-0.071289
-57.373047,-2.685547,-16.113281,1.286011,-0.285278,-0.076538
-57.373047,-2.685547,-16.113281,1.286011,-0.285278,-0.076538
-64.697266,-0.183105,-20.202637,1.286865,-0.298584,-0.062134
-64.697266,-0.183105,-20.202637,1.286865,-0.298584,-0.062134
-64.697266,-0.183105,-20.202637,1.286865,-0.298584,-0.062134
-64.697266,1.708984,-23.010254,1.283936,-0.302734,-0.040405
-64.697266,1.708984,-23.010254,1.283936,-0.302734,-0.040405
-58.349609,2.807617,-24.597168,1.277588,-0.291138,-0.015137
-58.349609,2.807617,-24.597168,1.277588,-0.291138,-0.015137
-58.349609,2.807617,-24.597168,1.267700,-0.266357,0.010498
-48.278809,3.417969,-25.146484,1.267700,-0.266357,0.010498
-48.278809,3.417969,-25.146484,1.267700,-0.266357,0.010498
-36.743164,3.662109,-25.085449,1.255249,-0.234741,0.030762
-36.743164,3.662109,-25.085449,1.255249,-0.234741,0.030762
-25.634766,3.601074,-24.536133,1.243042,-0.197754,0.044434
-25.634766,3.601074,-24.536133,1.243042,-0.197754,0.044434
-25.634766,3.601074,-24.536133,1.243042,-0.197754,0.044434
-16.113281,3.540039,-23.803711,1.231934,-0.162598,0.052979
-16.113281,3.540039,-23.803711,1.231934,-0.162598,0.052979
-8.300781,3.540039,-23.010254,1.217163,-0.135742,0.057861
-8.300781,3.540039,-23.010254,1.217163,-0.135742,0.057861
-1.892090,3.662109,-22.216797,1.200073,-0.112305,0.059082
-1.892090,3.662109,-22.216797,1.200073,-0.112305,0.059082
-1.892090,3.662109,-22.216797,1.200073,-0.112305,0.059082
2.807617,3.967285,-21.423340,1.184448,-0.091064,0.057129
2.807617,3.967285,-21.423340,1.184448,-0.091064,0.057129
5.798340,4.394531,-20.751953,1.171875,-0.071655,0.057007
5.798340,4.394531,-20.751953,1.171875,-0.071655,0.057007
5.798340,4.394531,-20.751953,1.163818,-0.052002,0.053467
7.202148,5.004883,-20.080566,1.163818,-0.052002,0.053467
7.202148,5.004883,-20.080566,1.163818,-0.052002,0.053467
6.652832,5.981445,-19.531250,1.161987,-0.033813,0.042236
6.652832,5.981445,-19.531250,1.161987,-0.033813,0.042236
4.699707,7.263184,-19.104004,1.160522,-0.014282,0.035156
4.699707,7.263184,-19.104004,1.160522,-0.014282,0.035156
4.699707,7.263184,-19.104004,1.160522,-0.014282,0.035156
1.159668,8.666992,-18.676758,1.153442,0.000732,0.033813
1.159668,8.666992,-18.676758,1.153442,0.000732,0.033813
-3.723145,10.314941,-18.371582,1.143066,0.002075,0.028320
-3.723145,10.314941,-18.371582,1.143066,0.002075,0.028320
-9.216309,12.145996,-18.310547,1.131226,-0.004517,0.022461
-9.216309,12.145996,-18.310547,1.131226,-0.004517,0.022461
-9.216309,12.145996,-18.310547,1.131226,-0.004517,0.022461
-14.526367,14.160156,-18.371582,1.120117,-0.015381,0.016235
-14.526367,14.160156,-18.371582,1.120117,-0.015381,0.016235
-18.920898,16.296387,-18.554688,1.109863,-0.026123,0.003784
-18.920898,16.296387,-18.554688,1.109863,-0.026123,0.003784
-18.920898,16.296387,-18.554688,1.099731,-0.030273,-0.009155
-22.705078,18.737793,-18.676758,1.099731,-0.030273,-0.009155
-22.705078,18.737793,-18.676758,1.099731,-0.030273,-0.009155
-25.390625,21.240234,-18.676758,1.089478,-0.033447,-0.013550
-25.390625,21.240234,-18.676758,1.089478,-0.033447,-0.013550
-26.611328,23.742676,-18.493652,1.073120,-0.036621,-0.014771
-26.611328,23.742676,-18.493652,1.073120,-0.036621,-0.014771
-26.611328,23.742676,-18.493652,1.073120,-0.036621,-0.014771
-26.611328,26.184082,-18.188477,1.052612,-0.035767,-0.016724
-26.611328,26.184082,-18.188477,1.052612,-0.035767,-0.016724
-25.451660,28.747559,-17.639160,1.037109,-0.037964,-0.02160
81.604004,21.972656,-5.371094,0.970703,-0.364868,0.148193
91.918945,23.376465,-7.385254,0.951050,-0.368774,0.136841
91.918945,23.376465,-7.385254,0.951050,-0.368774,0.136841
99.792480,24.902344,-9.765625,0.935669,-0.359741,0.115601
99.792480,24.902344,-9.765625,0.935669,-0.359741,0.115601
99.792480,24.902344,-9.765625,0.926514,-0.337402,0.078735
104.125977,26.794434,-12.329102,0.926514,-0.337402,0.078735
104.125977,26.794434,-12.329102,0.926514,-0.337402,0.078735
103.942871,29.113770,-15.258789,0.920044,-0.307983,0.041260
103.942871,29.113770,-15.258789,0.920044,-0.307983,0.041260
98.022461,31.982422,-18.554688,0.917847,-0.273315,-0.000244
98.022461,31.982422,-18.554688,0.917847,-0.273315,-0.000244
98.022461,31.982422,-18.554688,0.917847,-0.273315,-0.000244
87.097168,35.400391,-22.033691,0.921387,-0.244873,-0.041870
87.097168,35.400391,-22.033691,0.921387,-0.244873,-0.041870
74.218750,39.123535,-25.390625,0.922363,-0.239868,-0.066895
74.218750,39.123535,-25.390625,0.922363,-0.239868,-0.066895
64.514160,42.724609,-28.137207,0.920776,-0.256836,-0.082397
64.514160,42.724609,-28.137207,0.920776,-0.256836,-0.082397
64.514160,42.724609,-28.137207,0.920776,-0.256836,-0.082397
60.852051,45.959473,-30.029297,0.917847,-0.282471,-0.093872
60.852051,45.959473,-30.029297,0.917847,-0.282471,-0.093872
63.232422,48.706055,-31.188965,0.911255,-0.303589,-0.094727
63.232422,48.706055,-31.188965,0.911255,-0.303589,-0.094727
63.232422,48.706055,-31.188965,0.906860,-0.312622,-0.092407
67.993164,50.903320,-32.165527,0.906860,-0.312622,-0.092407
67.993164,50.903320,-32.165527,0.906860,-0.312622,-0.092407
71.838379,52.856445,-33.447266,0.901489,-0.316406,-0.084961
71.838379,52.856445,-33.447266,0.901489,-0.316406,-0.084961
76.049805,54.382324,-34.790039,0.888062,-0.325928,-0.074585
76.049805,54.382324,-34.790039,0.888062,-0.325928,-0.074585
76.049805,54.382324,-34.790039,0.888062,-0.325928,-0.074585
83.740234,55.297852,-35.949707,0.872559,-0.339478,-0.071045
83.740234,55.297852,-35.949707,0.872559,-0.339478,-0.071045
95.703125,55.603027,-36.682129,0.858154,-0.346924,-0.068604
95.703125,55.603027,-36.682129,0.858154,-0.346924,-0.068604
109.008789,55.297852,-37.536621,0.843384,-0.342529,-0.059814
109.008789,55.297852,-37.536621,0.843384,-0.342529,-0.059814
109.008789,55.297852,-37.536621,0.843384,-0.342529,-0.059814
121.520996,54.443359,-38.513184,0.842773,-0.334961,-0.057983
121.520996,54.443359,-38.513184,0.842773,-0.334961,-0.057983
132.324219,53.283691,-39.672852,0.864624,-0.319458,-0.056519
132.324219,53.283691,-39.672852,0.864624,-0.319458,-0.056519
132.324219,53.283691,-39.672852,0.897827,-0.284790,-0.052612
137.817383,52.001953,-41.381836,0.897827,-0.284790,-0.052612
137.817383,52.001953,-41.381836,0.897827,-0.284790,-0.052612
137.084961,50.659180,-43.518066,0.930176,-0.248047,-0.051758
137.084961,50.659180,-43.518066,0.930176,-0.248047,-0.051758
131.958008,49.316406,-45.776367,0.955933,-0.222900,-0.043823
131.958008,49.316406,-45.776367,0.955933,-0.222900,-0.043823
131.958008,49.316406,-45.776367,0.955933,-0.222900,-0.043823
124.267578,47.729492,-48.034668,0.978394,-0.201904,-0.031738
124.267578,47.729492,-48.034668,0.978394,-0.201904,-0.031738
113.830566,46.142578,-50.170898,1.000366,-0.171875,-0.015381
113.830566,46.142578,-50.170898,1.000366,-0.171875,-0.015381
100.158691,44.738770,-52.185059,1.012817,-0.142456,-0.001587
100.158691,44.738770,-52.185059,1.012817,-0.142456,-0.001587
100.158691,44.738770,-52.185059,1.012817,-0.142456,-0.001587
87.768555,43.579102,-53.588867,1.006348,-0.115234,0.003906
87.768555,43.579102,-53.588867,1.006348,-0.115234,0.003906
76.904297,42.602539,-54.443359,0.986694,-0.107300,0.014038
76.904297,42.602539,-54.443359,0.986694,-0.107300,0.014038
76.904297,42.602539,-54.443359,0.961792,-0.139771,0.036011
68.725586,41.809082,-54.992676,0.961792,-0.139771,0.036011
68.725586,41.809082,-54.992676,0.961792,-0.139771,0.036011
67.932129,40.832520,-54.931641,0.946899,-0.193481,0.044312
67.932129,40.832520,-54.931641,0.946899,-0.193481,0.044312
78.857422,39.489746,-53.588867,0.944336,-0.252075,0.037354
78.857422,39.489746,-53.588867,0.944336,-0.252075,0.037354
78.857422,39.489746,-53.588867,0.944336,-0.252075,0.037354
98.754883,37.841797,-51.452637,0.939087,-0.275635,0.027344
98.754883,37.841797,-51.452637,0.939087,-0.275635,0.027344
114.257812,36.499023,-49.865723,0.932007,-0.227295,0.025879
114.257812,36.499023,-49.865723,0.932007,-0.227295,0.025879
113.891602,35.888672,-49.804688,0.926392,-0.132568,0.041382
113.891602,35.888672,-49.804688,0.926392,-0.132568,0.041382
113.891602,35.888672,-49.804688,0.926392,-0.132568,0.041382
97.229004,36.071777,-50.964355,0.918823,-0.036377,0.049805
97.229004,36.071777,-50.964355,0.918823,-0.036377,0.049805
72.021484,37.048340,-52.246094,0.905273,0.036743,0.052002
72.021484,37.048340,-52.246094,0.905273,0.036743,0.052002
72.021484,37.048340,-52.246094,0.883057,0.079468,0.056641
44.372559,38.818359,-52.856445,0.883057,0.079468,0.056641
44.372559,38.818359,-52.856445,0.883057,0.079468,0.056641
20.019531,40.710449,-52.490234,0.861206,0.080322,0.059448
20.019531,40.710449,-52.490234,0.861206,0.080322,0.059448
6.835938,42.297363,-50.415039,0.840332,0.035645,0.067871
6.835938,42.297363,-50.415039,0.840332,0.035645,0.067871
6.835938,42.297363,-50.415039,0.840332,0.035645,0.067871
11.352539,43.029785,-46.020508,0.826294,-0.018066,0.079346
11.352539,43.029785,-46.020508,0.826294,-0.018066,0.079346
27.282715,42.968750,-40.100098,0.828857,-0.030273,0.095337
27.282715,42.968750,-40.100098,0.828857,-0.030273,0.095337
40.039062,42.663574,-34.484863,0.841187,0.016724,0.125366
40.039062,42.663574,-34.484863,0.841187,0.016724,0.125366
40.039062,42.663574,-34.484863,0.841187,0.016724,0.125366
36.743164,42.785645,-30.639648,0.852905,0.092041,0.161133
36.743164,42.785645,-30.639648,0.852905,0.092041,0.161133
17.578125,43.518066,-28.442383,0.853271,0.146118,0.197510
17.578125,43.518066,-28.442383,0.853271,0.146118,0.197510
-8.666992,44.372559,-26.977539,0.850464,0.153564,0.220459
-8.666992,44.372559,-26.977539,0.850464,0.153564,0.220459
-8.666992,44.372559,-26.977539,0.850464,0.153564,0.220459
-32.165527,45.166016,-25.146484,0.854492,0.110596,0.228638
-32.165527,45.166016,-25.146484,0.854492,0.110596,0.228638
-43.457031,45.410156,-22.033691,0.860840,0.039429,0.238647
-43.457031,45.410156,-22.033691,0.860840,0.039429,0.238647
-43.457031,45.410156,-22.033691,0.860840,0.039429,0.238647
-41.259766,44.860840,-17.395020,0.875732,-0.014282,0.254761
-41.259766,44.860840,-17.395020,0.875732,-0.014282,0.254761
-34.667969,43.762207,-12.329102,0.892700,-0.034790,0.280029
-34.667969,43.762207,-12.329102,0.892700,-0.034790,0.280029
-30.517578,42.358398,-7.751465,0.898071,-0.033936,0.313599
-30.517578,42.358398,-7.751465,0.898071,-0.033936,0.313599
-30.517578,42.358398,-7.751465,0.898071,-0.033936,0.313599
-32.348633,40.954590,-4.089355,0.899414,-0.022461,0.342163
-32.348633,40.954590,-4.089355,0.899414,-0.022461,0.342163
-40.283203,39.550781,-1.281738,0.897949,-0.017456,0.359009
-40.283203,39.550781,-1.281738,0.897949,-0.017456,0.359009
-50.231934,38.146973,1.159668,0.889404,-0.033691,0.363281
-50.231934,38.146973,1.159668,0.889404,-0.033691,0.363281
-50.231934,38.146973,1.159668,0.889404,-0.033691,0.363281
-56.152344,36.804199,3.845215,0.873901,-0.069580,0.359131
-56.152344,36.804199,3.845215,0.873901,-0.069580,0.359131
-54.870605,35.400391,7.202148,0.852295,-0.111450,0.352539
-54.870605,35.400391,7.202148,0.852295,-0.111450,0.352539
-54.870605,35.400391,7.202148,0.852295,-0.111450,0.352539
-48.034668,33.752441,10.864258,0.822266,-0.136230,0.350220
-48.034668,33.752441,10.864258,0.822266,-0.136230,0.350220
-40.588379,32.165527,14.343262,0.778564,-0.144165,0.348511
-40.588379,32.165527,14.343262,0.778564,-0.144165,0.348511
-35.827637,30.761719,17.028809,0.721558,-0.156006,0.344482
-35.827637,30.761719,17.028809,0.721558,-0.156006,0.344482
-35.827637,30.761719,17.028809,0.721558,-0.156006,0.344482
-29.357910,29.296875,19.470215,0.656616,-0.180176,0.339233
-29.357910,29.296875,19.470215,0.656616,-0.180176,0.339233
-19.165039,27.893066,21.911621,0.604614,-0.206909,0.329346
-19.165039,27.893066,21.911621,0.604614,-0.206909,0.329346
-6.347656,26.611328,24.169922,0.590576,-0.221436,0.312256
-6.347656,26.611328,24.169922,0.590576,-0.221436,0.312256
-6.347656,26.611328,24.169922,0.590576,-0.221436,0.312256
7.263184,25.634766,26.306152,0.612305,-0.221069,0.285400
7.263184,25.634766,26.306152,0.612305,-0.221069,0.285400
19.653320,25.146484,28.198242,0.649292,-0.208374,0.267822
19.653320,25.146484,28.198242,0.649292,-0.208374,0.267822
19.653320,25.146484,28.198242,0.699219,-0.172485,0.254883
27.282715,25.085449,29.418945,0.699219,-0.172485,0.254883
27.282715,25.085449,29.418945,0.699219,-0.172485,0.254883
26.000977,25.756836,29.907227,0.754761,-0.110596,0.230591
26.000977,25.756836,29.907227,0.754761,-0.110596,0.230591
16.174316,26.977539,29.724121,0.784668,-0.058472,0.210327
16.174316,26.977539,29.724121,0.784668,-0.058472,0.210327
16.174316,26.977539,29.724121,0.784668,-0.058472,0.210327
2.929688,28.381348,29.479980,0.788208,-0.030029,0.193726
2.929688,28.381348,29.479980,0.788208,-0.030029,0.193726
-11.291504,29.785156,29.357910,0.796021,-0.012207,0.176025
-11.291504,29.785156,29.357910,0.796021,-0.012207,0.176025
-25.634766,31.127930,29.418945,0.820923,-0.009277,0.162964
-25.634766,31.127930,29.418945,0.820923,-0.009277,0.162964
-25.634766,31.127930,29.418945,0.820923,-0.009277,0.162964
-36.682129,32.165527,29.846191,0.861328,-0.029785,0.151001
-36.682129,32.165527,29.846191,0.861328,-0.029785,0.151001
-41.748047,32.897949,31.005859,0.919556,-0.073242,0.139038
-41.748047,32.897949,31.005859,0.919556,-0.073242,0.139038
-41.748047,32.897949,31.005859,0.988525,-0.124512,0.131714
-38.391113,33.081055,32.836914,0.988525,-0.124512,0.131714
-38.391113,33.081055,32.836914,0.988525,-0.124512,0.131714
-26.855469,32.836914,35.278320,1.057861,-0.168335,0.130615
-26.855469,32.836914,35.278320,1.057861,-0.168335,0.130615
-11.535645,32.226562,37.719727,1.121094,-0.198486,0.140381
-11.535645,32.226562,37.719727,1.121094,-0.198486,0.140381
-11.535645,32.226562,37.719727,1.121094,-0.198486,0.140381
3.784180,31.372070,39.672852,1.169556,-0.220459,0.156982
3.784180,31.372070,39.672852,1.169556,-0.220459,0.156982
18.493652,30.151367,40.954590,1.191772,-0.243408,0.176392
18.493652,30.151367,40.954590,1.191772,-0.243408,0.176392
34.423828,28.503418,41.870117,1.181763,-0.263184,0.197021
34.423828,28.503418,41.870117,1.181763,-0.263184,0.197021
34.423828,28.503418,41.870117,1.181763,-0.263184,0.197021
52.062988,26.306152,42.480469,1.149902,-0.271240,0.210205
52.062988,26.306152,42.480469,1.149902,-0.271240,0.210205
69.519043,23.742676,42.846680,1.117065,-0.266235,0.224609
69.519043,23.742676,42.846680,1.117065,-0.266235,0.224609
69.519043,23.742676,42.846680,1.093262,-0.241821,0.245605
83.435059,20.874023,42.541504,1.093262,-0.241821,0.245605
83.435059,20.874023,42.541504,1.093262,-0.241821,0.245605
89.355469,17.822266,41.259766,1.086792,-0.203125,0.268433
89.355469,17.822266,41.259766,1.086792,-0.203125,0.268433
87.158203,14.465332,39.001465,1.097412,-0.173706,0.291138
87.158203,14.465332,39.001465,1.097412,-0.173706,0.291138
87.158203,14.465332,39.001465,1.097412,-0.173706,0.291138
80.200195,10.864258,36.193848,1.096558,-0.154907,0.304443
80.200195,10.864258,36.193848,1.096558,-0.154907,0.304443
71.899414,7.019043,33.386230,1.071777,-0.137085,0.301514
71.899414,7.019043,33.386230,1.071777,-0.137085,0.301514
64.025879,2.990723,30.944824,1.030884,-0.119629,0.287842
64.025879,2.990723,30.944824,1.030884,-0.119629,0.287842
64.025879,2.990723,30.944824,1.030884,-0.119629,0.287842
57.373047,-1.037598,28.991699,0.976318,-0.104736,0.270752
57.373047,-1.037598,28.991699,0.976318,-0.104736,0.270752
52.001953,-5.187988,27.404785,0.917480,-0.091309,0.248901
52.001953,-5.187988,27.404785,0.917480,-0.091309,0.248901
52.001953,-5.187988,27.404785,0.866577,-0.076294,0.220337
47.485352,-9.155273,26.123047,0.866577,-0.076294,0.220337
47.485352,-9.155273,26.123047,0.866577,-0.076294,0.220337
42.602539,-12.817383,25.024414,0.835815,-0.056885,0.183838
42.602539,-12.817383,25.024414,0.835815,-0.056885,0.183838
35.827637,-15.930176,23.925781,0.818481,-0.039917,0.150024
35.827637,-15.930176,23.925781,0.818481,-0.039917,0.150024
35.827637,-15.930176,23.925781,0.818481,-0.039917,0.150024
27.709961,-18.554688,22.705078,0.797974,-0.033813,0.128296
27.709961,-18.554688,22.705078,0.797974,-0.033813,0.128296
20.324707,-20.935059,21.850586,1.113770,-0.311035,0.306152
20.324707,-20.935059,21.850586,1.113770,-0.311035,0.306152
72.387695,-41.687012,28.320312,1.262207,-0.407593,0.428589
72.387695,-41.687012,28.320312,1.262207,-0.407593,0.428589
72.387695,-41.687012,28.320312,1.262207,-0.407593,0.428589
97.473145,-57.067871,0.244141,0.291748,0.063599,0.189697
97.473145,-57.067871,0.244141,0.291748,0.063599,0.189697
86.181641,-57.861328,11.779785,-0.074951,0.410278,0.437012
86.181641,-57.861328,11.779785,-0.074951,0.410278,0.437012
86.181641,-57.861328,11.779785,0.786133,0.358276,0.759888
40.588379,-50.048828,12.023926,0.786133,0.358276,0.759888
40.588379,-50.048828,12.023926,0.786133,0.358276,0.759888
7.995605,-49.011230,5.981445,1.026733,0.151001,0.437378
7.995605,-49.011230,5.981445,1.026733,0.151001,0.437378
-8.361816,-48.339844,4.882812,0.874023,0.092163,0.253662
-8.361816,-48.339844,4.882812,0.874023,0.092163,0.253662
-8.361816,-48.339844,4.882812,0.874023,0.092163,0.253662
-17.822266,-47.607422,3.662109,0.901978,0.033691,0.240723
-17.822266,-47.607422,3.662109,0.901978,0.033691,0.240723
-18.737793,-46.630859,3.723145,0.906982,-0.066162,0.170288
-18.737793,-46.630859,3.723145,0.906982,-0.066162,0.170288
-10.498047,-45.837402,4.394531,0.925659,-0.084229,0.165161
-10.498047,-45.837402,4.394531,0.925659,-0.084229,0.165161
-10.498047,-45.837402,4.394531,0.925659,-0.084229,0.165161
3.845215,-45.166016,6.164551,0.923706,-0.106079,0.168457
3.845215,-45.166016,6.164551,0.923706,-0.106079,0.168457
19.287109,-44.677734,8.239746,0.925171,-0.098633,0.173706
19.287109,-44.677734,8.239746,0.925171,-0.098633,0.173706
19.287109,-44.677734,8.239746,0.925903,-0.067139,0.214478
31.982422,-44.372559,10.070801,0.925903,-0.067139,0.214478
31.982422,-44.372559,10.070801,0.925903,-0.067139,0.214478
40.100098,-44.067383,11.657715,0.925293,-0.030640,0.244263
40.100098,-44.067383,11.657715,0.925293,-0.030640,0.244263
43.579102,-43.884277,12.695312,0.927490,-0.004639,0.249756
43.579102,-43.884277,12.695312,0.927490,-0.004639,0.249756
43.579102,-43.884277,12.695312,0.927490,-0.004639,0.249756
43.090820,-43.579102,13.305664,0.928833,0.014404,0.250122
43.090820,-43.579102,13.305664,0.928833,0.014404,0.25012
-11.657715,-36.132812,4.211426,1.118652,-0.048828,0.373535
-11.657715,-36.132812,4.211426,1.128052,-0.055420,0.370117
-11.901855,-39.489746,4.272461,1.128052,-0.055420,0.370117
-11.901855,-39.489746,4.272461,1.128052,-0.055420,0.370117
-10.192871,-42.968750,4.577637,1.123657,-0.061646,0.364624
-10.192871,-42.968750,4.577637,1.123657,-0.061646,0.364624
-6.103516,-46.447754,5.371094,1.109253,-0.068726,0.355225
-6.103516,-46.447754,5.371094,1.109253,-0.068726,0.355225
-6.103516,-46.447754,5.371094,1.109253,-0.068726,0.355225
-18.249512,-45.227051,6.896973,1.826050,0.025635,0.559326
-18.249512,-45.227051,6.896973,1.826050,0.025635,0.559326
-43.640137,-33.447266,10.009766,1.220703,0.204346,0.731689
-43.640137,-33.447266,10.009766,1.220703,0.204346,0.731689
-37.597656,-43.334961,15.014648,-0.002197,0.156982,0.629517
-37.597656,-43.334961,15.014648,-0.002197,0.156982,0.629517
-37.597656,-43.334961,15.014648,-0.002197,0.156982,0.629517
-18.981934,-52.246094,20.751953,0.328735,0.031860,0.483398
-18.981934,-52.246094,20.751953,0.328735,0.031860,0.483398
-13.183594,-46.081543,17.639160,0.731201,0.104858,0.717896
-13.183594,-46.081543,17.639160,0.731201,0.104858,0.717896
-13.183594,-46.081543,17.639160,0.825073,0.096558,0.762695
3.417969,-43.457031,15.319824,0.825073,0.096558,0.762695
3.417969,-43.457031,15.319824,0.825073,0.096558,0.762695
16.113281,-45.471191,18.127441,0.841064,0.003174,0.395386
16.113281,-45.471191,18.127441,0.841064,0.003174,0.395386
24.536133,-45.349121,19.592285,0.881592,0.015625,0.334106
24.536133,-45.349121,19.592285,0.881592,0.015625,0.334106
24.536133,-45.349121,19.592285,0.881592,0.015625,0.334106
32.653809,-44.738770,21.362305,0.841309,0.048950,0.379761
32.653809,-44.738770,21.362305,0.841309,0.048950,0.379761
38.024902,-44.616699,22.705078,0.867188,0.048584,0.378174
38.024902,-44.616699,22.705078,0.867188,0.048584,0.378174
39.367676,-44.189453,23.620605,0.868164,0.048950,0.394409
39.367676,-44.189453,23.620605,0.868164,0.048950,0.394409
39.367676,-44.189453,23.620605,0.868164,0.048950,0.394409
39.733887,-44.250488,24.230957,0.863403,0.060791,0.458252
39.733887,-44.250488,24.230957,0.863403,0.060791,0.458252
40.344238,-44.677734,25.146484,0.855713,0.071289,0.510254
40.344238,-44.677734,25.146484,0.855713,0.071289,0.510254
40.344238,-44.677734,25.146484,0.850342,0.076050,0.537598
41.320801,-45.471191,26.062012,0.850342,0.076050,0.537598
41.320801,-45.471191,26.062012,0.850342,0.076050,0.537598
42.724609,-46.386719,27.099609,0.851074,0.075562,0.545288
42.724609,-46.386719,27.099609,0.851074,0.075562,0.545288
44.189453,-47.363281,28.137207,0.850708,0.072021,0.531250
44.189453,-47.363281,28.137207,0.850708,0.072021,0.531250
44.189453,-47.363281,28.137207,0.850708,0.072021,0.531250
44.738770,-48.278809,29.113770,0.851807,0.064209,0.508667
44.738770,-48.278809,29.113770,0.851807,0.064209,0.508667
43.823242,-48.950195,29.785156,0.851074,0.051147,0.491821
43.823242,-48.950195,29.785156,0.851074,0.051147,0.491821
41.748047,-49.621582,30.151367,0.850586,0.033203,0.483154
41.748047,-49.621582,30.151367,0.850586,0.033203,0.483154
41.748047,-49.621582,30.151367,0.850586,0.033203,0.483154
39.184570,-50.292969,30.334473,0.851685,0.015381,0.474365
39.184570,-50.292969,30.334473,0.851685,0.015381,0.474365
36.865234,-50.964355,30.456543,0.851807,0.004639,0.461670
36.865234,-50.964355,30.456543,0.851807,0.004639,0.461670
36.865234,-50.964355,30.456543,0.853760,0.002686,0.443237
34.851074,-51.574707,30.639648,0.853760,0.002686,0.443237
34.851074,-51.574707,30.639648,0.853760,0.002686,0.443237
32.775879,-52.124023,30.761719,0.855957,0.004517,0.421997
32.775879,-52.124023,30.761719,0.855957,0.004517,0.421997
30.273438,-52.673340,30.883789,0.856934,0.006714,0.406616
30.273438,-52.673340,30.883789,0.856934,0.006714,0.406616
30.273438,-52.673340,30.883789,0.856934,0.006714,0.406616
27.343750,-53.161621,30.944824,0.858154,0.007812,0.396606
27.343750,-53.161621,30.944824,0.858154,0.007812,0.396606
24.047852,-53.649902,30.944824,0.859741,0.008911,0.390503
24.047852,-53.649902,30.944824,0.859741,0.008911,0.390503
20.202637,-54.199219,30.944824,0.858276,0.005493,0.387085
20.202637,-54.199219,30.944824,0.858276,0.005493,0.387085
20.202637,-54.199219,30.944824,0.858276,0.005493,0.387085
16.845703,-54.748535,30.883789,0.856934,-0.003784,0.383911
16.845703,-54.748535,30.883789,0.856934,-0.003784,0.383911
14.404297,-55.480957,30.944824,0.858032,-0.010010,0.374268
14.404297,-55.480957,30.944824,0.858032,-0.010010,0.374268
12.817383,-56.152344,31.066895,0.858398,-0.017334,0.352783
12.817383,-56.152344,31.066895,0.858398,-0.017334,0.352783
12.817383,-56.152344,31.066895,0.858398,-0.017334,0.352783
12.207031,-56.762695,31.311035,0.859009,-0.031616,0.323486
12.207031,-56.762695,31.311035,0.859009,-0.031616,0.323486
12.451172,-57.250977,31.677246,0.863403,-0.047363,0.290771
12.451172,-57.250977,31.677246,0.863403,-0.047363,0.290771
12.451172,-57.250977,31.677246,0.863403,-0.047363,0.290771
12.695312,-57.556152,31.860352,0.868286,-0.061279,0.258423
12.695312,-57.556152,31.860352,0.868286,-0.061279,0.258423
12.451172,-57.678223,31.982422,0.870850,-0.075195,0.228516
12.451172,-57.678223,31.982422,0.870850,-0.075195,0.228516
11.108398,-57.739258,31.860352,0.873413,-0.086914,0.202393
11.108398,-57.739258,31.860352,0.873413,-0.086914,0.202393
11.108398,-57.739258,31.860352,0.873413,-0.086914,0.202393
8.666992,-57.617188,31.555176,0.875244,-0.095459,0.181152
8.666992,-57.617188,31.555176,0.875244,-0.095459,0.181152
5.126953,-57.373047,31.066895,0.879761,-0.103638,0.159058
5.126953,-57.373047,31.066895,0.879761,-0.103638,0.159058
0.915527,-57.067871,30.334473,0.884521,-0.111816,0.132568
0.915527,-57.067871,30.334473,0.884521,-0.111816,0.132568
0.915527,-57.067871,30.334473,0.884521,-0.111816,0.132568
-3.784180,-56.640625,29.541016,0.887207,-0.123169,0.102905
-3.784180,-56.640625,29.541016,0.887207,-0.123169,0.102905
-8.605957,-56.091309,28.503418,0.892822,-0.142334,0.070679
-8.605957,-56.091309,28.503418,0.892822,-0.142334,0.070679
-8.605957,-56.091309,28.503418,0.892822,-0.142334,0.070679
-13.244629,-55.419922,27.343750,0.903564,-0.170166,0.035278
-13.244629,-55.419922,27.343750,0.903564,-0.170166,0.035278
-17.150879,-54.626465,26.123047,0.910400,-0.203003,0.002075
-17.150879,-54.626465,26.123047,0.910400,-0.203003,0.002075
-19.958496,-53.710938,24.719238,0.913696,-0.236084,-0.027344
-19.958496,-53.710938,24.719238,0.913696,-0.236084,-0.027344
-19.958496,-53.710938,24.719238,0.913696,-0.236084,-0.027344
-21.362305,-52.673340,23.376465,0.920654,-0.270874,-0.060059
-21.362305,-52.673340,23.376465,0.920654,-0.270874,-0.060059
-21.606445,-51.574707,21.972656,0.928223,-0.307129,-0.096802
-21.606445,-51.574707,21.972656,0.928223,-0.307129,-0.096802
-20.690918,-50.354004,20.629883,0.936157,-0.340454,-0.128052
-20.690918,-50.354004,20.629883,0.936157,-0.340454,-0.128052
-20.690918,-50.354004,20.629883,0.936157,-0.340454,-0.128052
-18.737793,-48.889160,19.165039,0.945068,-0.368164,-0.152466
-18.737793,-48.889160,19.165039,0.945068,-0.368164,-0.152466
-15.563965,-47.424316,17.822266,0.953247,-0.389771,-0.178833
-15.563965,-47.424316,17.822266,0.953247,-0.389771,-0.178833
-15.563965,-47.424316,17.822266,0.961548,-0.406006,-0.203125
-11.474609,-45.898438,16.540527,0.961548,-0.406006,-0.203125
-11.474609,-45.898438,16.540527,0.961548,-0.406006,-0.203125
-6.286621,-44.250488,15.380859,0.967896,-0.413452,-0.217163
-6.286621,-44.250488,15.380859,0.967896,-0.413452,-0.217163
-0.122070,-42.724609,14.526367,0.972900,-0.408691,-0.218506
-0.122070,-42.724609,14.526367,0.972900,-0.408691,-0.218506
-0.122070,-42.724609,14.526367,0.972900,-0.408691,-0.218506
6.469727,-41.198730,13.854980,0.977783,-0.391113,-0.213135
6.469727,-41.198730,13.854980,0.977783,-0.391113,-0.213135
11.901855,-39.733887,13.183594,0.979492,-0.363770,-0.207275
11.901855,-39.733887,13.183594,0.979492,-0.363770,-0.207275
15.014648,-38.269043,12.451172,0.982300,-0.333008,-0.199097
15.014648,-38.269043,12.451172,0.982300,-0.333008,-0.199097
15.014648,-38.269043,12.451172,0.982300,-0.333008,-0.199097
15.563965,-36.804199,11.657715,0.985107,-0.303345,-0.186401
15.563965,-36.804199,11.657715,0.985107,-0.303345,-0.186401
14.587402,-35.461426,10.681152,0.985718,-0.276733,-0.174316
14.587402,-35.461426,10.681152,0.985718,-0.276733,-0.174316
14.587402,-35.461426,10.681152,0.987427,-0.253052,-0.170776
13.061523,-34.240723,9.887695,0.987427,-0.253052,-0.170776
13.061523,-34.240723,9.887695,0.987427,-0.253052,-0.170776
11.657715,-32.958984,9.216309,0.989502,-0.232178,-0.174438
11.657715,-32.958984,9.216309,0.989502,-0.232178,-0.174438
10.681152,-31.738281,8.789062,0.992065,-0.214966,-0.179565
10.681152,-31.738281,8.789062,0.992065,-0.214966,-0.179565
10.681152,-31.738281,8.789062,0.992065,-0.214966,-0.179565
10.009766,-30.578613,8.544922,0.994995,-0.201294,-0.185669
10.009766,-30.578613,8.544922,0.994995,-0.201294,-0.185669
9.277344,-29.357910,8.361816,0.997314,-0.191040,-0.193726
9.277344,-29.357910,8.361816,0.997314,-0.191040,-0.193726
8.666992,-28.137207,8.239746,0.998901,-0.181763,-0.196655
8.666992,-28.137207,8.239746,0.998901,-0.181763,-0.196655
8.666992,-28.137207,8.239746,0.998901,-0.181763,-0.196655
8.056641,-27.038574,8.178711,0.998901,-0.170776,-0.188843
8.056641,-27.038574,8.178711,0.998901,-0.170776,-0.188843
7.019043,-25.939941,8.178711,0.998535,-0.161377,-0.176147
7.019043,-25.939941,8.178711,0.998535,-0.161377,-0.176147
7.019043,-25.939941,8.178711,0.997559,-0.157227,-0.168091
5.187988,-24.963379,8.117676,0.997559,-0.157227,-0.168091
5.187988,-24.963379,8.117676,0.997559,-0.157227,-0.168091
2.441406,-23.986816,7.873535,0.996216,-0.158813,-0.166382
2.441406,-23.986816,7.873535,0.996216,-0.158813,-0.166382
-0.488281,-23.071289,7.568359,0.995117,-0.163330,-0.166260
-0.488281,-23.071289,7.568359,0.995117,-0.163330,-0.166260
-0.488281,-23.071289,7.568359,0.995117,-0.163330,-0.166260
-3.112793,-22.216797,7.324219,0.994995,-0.164795,-0.165527
-3.112793,-22.216797,7.324219,0.994995,-0.164795,-0.165527
-5.249023,-21.423340,7.141113,0.994263,-0.161133,-0.162842
-5.249023,-21.423340,7.141113,0.994263,-0.161133,-0.162842
-6.958008,-20.690918,7.080078,0.991943,-0.154175,-0.155518
-6.958008,-20.690918,7.080078,0.991943,-0.154175,-0.155518
-6.958008,-20.690918,7.080078,0.991943,-0.154175,-0.155518
-8.239746,-20.080566,7.141113,0.989502,-0.145508,-0.142090
-8.239746,-20.080566,7.141113,0.989502,-0.145508,-0.142090
-8.789062,-19.714355,7.385254,0.987305,-0.137573,-0.127930
-8.789062,-19.714355,7.385254,0.987305,-0.137573,-0.127930
-8.789062,-19.714355,7.385254,0.986206,-0.131958,-0.121460
-8.422852,-19.348145,7.812500,0.986206,-0.131958,-0.121460
-8.422852,-19.348145,7.812500,0.986206,-0.131958,-0.121460
-7.324219,-19.104004,8.361816,0.985474,-0.127930,-0.122803
-7.324219,-19.104004,8.361816,0.985474,-0.127930,-0.122803
-5.737305,-18.859863,9.094238,0.984741,-0.124756,-0.126221
-5.737305,-18.859863,9.094238,0.984741,-0.124756,-0.126221
-5.737305,-18.859863,9.094238,0.984741,-0.124756,-0.126221
-3.967285,-18.615723,9.826660,0.984863,-0.125366,-0.131958
-3.967285,-18.615723,9.826660,0.984863,-0.125366,-0.131958
-2.502441,-18.371582,10.559082,0.984253,-0.126099,-0.140747
-2.502441,-18.371582,10.559082,0.984253,-0.126099,-0.140747
-1.831055,-18.066406,11.230469,0.984253,-0.118286,-0.148315
-1.831055,-18.066406,11.230469,0.984253,-0.118286,-0.148315
-1.831055,-18.066406,11.230469,0.984253,-0.118286,-0.148315
-3.173828,-17.700195,11.657715,0.984375,-0.104858,-0.150146
-3.173828,-17.700195,11.657715,0.984375,-0.104858,-0.150146
-6.652832,-17.272949,11.901855,0.982666,-0.093018,-0.144897
-6.652832,-17.272949,11.901855,0.982666,-0.093018,-0.144897
-6.652832,-17.272949,11.901855,0.979858,-0.087158,-0.137573
-11.474609,-16.845703,11.962891,0.979858,-0.087158,-0.137573
-11.474609,-16.845703,11.962891,0.979858,-0.087158,-0.137573
-16.723633,-16.540527,11.962891,0.977051,-0.091309,-0.131592
-16.723633,-16.540527,11.962891,0.977051,-0.091309,-0.131592
-21.667480,-16.296387,11.901855,0.974976,-0.106079,-0.129395
-21.667480,-16.296387,11.901855,0.974976,-0.106079,-0.129395
-21.667480,-16.296387,11.901855,0.974976,-0.106079,-0.129395
-25.390625,-16.113281,11.962891,0.972656,-0.126831,-0.132568
-25.390625,-16.113281,11.962891,0.972656,-0.126831,-0.132568
-27.099609,-15.991211,12.145996,0.970093,-0.147949,-0.139282
-27.099609,-15.991211,12.145996,0.970093,-0.147949,-0.139282
-26.000977,-15.991211,12.634277,0.969116,-0.168579,-0.146362
-26.000977,-15.991211,12.634277,0.969116,-0.168579,-0.146362
-26.000977,-15.991211,12.634277,0.969116,-0.168579,-0.146362
-21.606445,-16.052246,13.427734,0.968628,-0.190918,-0.156372
-21.606445,-16.052246,13.427734,0.968628,-0.190918,-0.156372
-14.282227,-16.113281,14.587402,0.969482,-0.214600,-0.176880
-14.282227,-16.113281,14.587402,0.969482,-0.214600,-0.176880
-14.282227,-16.113281,14.587402,0.971558,-0.237671,-0.202148
-4.882812,-16.052246,15.930176,0.971558,-0.237671,-0.202148
-4.882812,-16.052246,15.930176,0.971558,-0.237671,-0.202148
6.103516,-15.991211,17.395020,0.970459,-0.242432,-0.204346
6.103516,-15.991211,17.395020,0.970459,-0.242432,-0.204346
15.930176,-15.991211,18.920898,0.965576,-0.212769,-0.173584
15.930176,-15.991211,18.920898,0.965576,-0.212769,-0.173584
15.930176,-15.991211,18.920898,0.965576,-0.212769,-0.173584
21.301270,-16.113281,20.141602,0.960815,-0.167358,-0.137207
21.301270,-16.113281,20.141602,0.960815,-0.167358,-0.137207
20.446777,-16.174316,20.690918,0.958008,-0.137573,-0.116943
20.446777,-16.174316,20.690918,0.958008,-0.137573,-0.116943
14.099121,-16.174316,20.568848,0.953735,-0.119385,-0.102417
14.099121,-16.174316,20.568848,0.953735,-0.119385,-0.102417
14.099121,-16.174316,20.568848,0.953735,-0.119385,-0.102417
4.089355,-16.113281,20.080566,0.947754,-0.104370,-0.084595
4.089355,-16.113281,20.080566,0.947754,-0.104370,-0.084595
-7.385254,-16.174316,19.348145,0.945312,-0.108887,-0.079712
-7.385254,-16.174316,19.348145,0.945312,-0.108887,-0.079712
-7.385254,-16.174316,19.348145,0.942749,-0.133667,-0.089478
-17.700195,-16.418457,18.676758,0.942749,-0.133667,-0.089478
-17.700195,-16.418457,18.676758,0.942749,-0.133667,-0.089478
-24.902344,-16.662598,18.249512,0.939209,-0.168335,-0.106567
-24.902344,-16.662598,18.249512,0.939209,-0.168335,-0.106567
-28.564453,-16.906738,18.127441,0.940796,-0.201660,-0.128662
-28.564453,-16.906738,18.127441,0.940796,-0.201660,-0.128662
-28.564453,-16.906738,18.127441,0.940796,-0.201660,-0.128662
-29.052734,-17.211914,18.188477,0.943481,-0.229126,-0.150146
-29.052734,-17.211914,18.188477,0.943481,-0.229126,-0.150146
-27.770996,-17.456055,18.432617,0.945557,-0.247437,-0.162476
-27.770996,-17.456055,18.432617,0.945557,-0.247437,-0.162476
-26.489258,-17.700195,18.615723,0.949585,-0.252319,-0.156616
-26.489258,-17.700195,18.615723,0.949585,-0.252319,-0.15661
-95.581055,-36.071777,25.573730,0.840088,0.495239,0.655762
-95.581055,-36.071777,25.573730,0.840088,0.495239,0.655762
-95.581055,-36.071777,25.573730,0.840088,0.495239,0.655762
-85.998535,-31.188965,15.014648,1.137207,0.387085,0.782349
-85.998535,-31.188965,15.014648,1.137207,0.387085,0.782349
-72.631836,-34.729004,20.751953,0.709595,0.198364,0.478394
-72.631836,-34.729004,20.751953,0.709595,0.198364,0.478394
-61.401367,-35.583496,22.033691,0.893433,0.193237,0.366455
-61.401367,-35.583496,22.033691,0.893433,0.193237,0.366455
-61.401367,-35.583496,22.033691,0.893433,0.193237,0.366455
-49.072266,-35.583496,24.047852,0.835938,0.148804,0.379028
-49.072266,-35.583496,24.047852,0.835938,0.148804,0.379028
-33.935547,-36.010742,26.367188,0.839233,0.118896,0.403687
-33.935547,-36.010742,26.367188,0.839233,0.118896,0.403687
-33.935547,-36.010742,26.367188,0.850342,0.102173,0.417236
-18.798828,-36.621094,28.625488,0.850342,0.102173,0.417236
-18.798828,-36.621094,28.625488,0.850342,0.102173,0.417236
-5.310059,-37.048340,30.761719,0.837402,0.095825,0.422729
-5.310059,-37.048340,30.761719,0.837402,0.095825,0.422729
5.676270,-37.414551,32.592773,0.848267,0.099121,0.443848
5.676270,-37.414551,32.592773,0.848267,0.099121,0.443848
5.676270,-37.414551,32.592773,0.848267,0.099121,0.443848
14.587402,-37.902832,34.301758,0.840820,0.104736,0.465942
14.587402,-37.902832,34.301758,0.840820,0.104736,0.465942
21.728516,-38.513184,35.766602,0.843140,0.110718,0.483521
21.728516,-38.513184,35.766602,0.843140,0.110718,0.483521
27.404785,-39.062500,37.231445,0.844604,0.112671,0.493286
27.404785,-39.062500,37.231445,0.844604,0.112671,0.493286
27.404785,-39.062500,37.231445,0.844604,0.112671,0.493286
31.738281,-39.672852,38.513184,0.843872,0.113281,0.495972
31.738281,-39.672852,38.513184,0.843872,0.113281,0.495972
34.545898,-40.222168,39.550781,0.841919,0.111938,0.489014
34.545898,-40.222168,39.550781,0.841919,0.111938,0.489014
34.545898,-40.222168,39.550781,0.846313,0.106445,0.476562
35.888672,-40.649414,40.344238,0.846313,0.106445,0.476562
35.888672,-40.649414,40.344238,0.846313,0.106445,0.476562
35.766602,-41.015625,40.893555,0.848022,0.095459,0.460449
35.766602,-41.015625,40.893555,0.848022,0.095459,0.460449
34.240723,-41.259766,41.259766,0.850830,0.083862,0.440796
34.240723,-41.259766,41.259766,0.850830,0.083862,0.440796
34.240723,-41.259766,41.259766,0.850830,0.083862,0.440796
30.944824,-41.381836,41.259766,0.855591,0.074219,0.424194
30.944824,-41.381836,41.259766,0.855591,0.074219,0.424194
26.245117,-41.381836,40.954590,0.857178,0.062256,0.415283
26.245117,-41.381836,40.954590,0.857178,0.062256,0.415283
20.812988,-41.442871,40.466309,0.859131,0.045410,0.404541
20.812988,-41.442871,40.466309,0.859131,0.045410,0.404541
20.812988,-41.442871,40.466309,0.859131,0.045410,0.404541
15.441895,-41.503906,39.794922,0.862549,0.026245,0.388916
15.441895,-41.503906,39.794922,0.862549,0.026245,0.388916
10.437012,-41.564941,39.184570,0.865112,0.017212,0.372681
10.437012,-41.564941,39.184570,0.865112,0.017212,0.372681
10.437012,-41.564941,39.184570,0.869019,0.019775,0.357300
5.187988,-41.625977,38.452148,0.869019,0.019775,0.357300
5.187988,-41.625977,38.452148,0.869019,0.019775,0.357300
-0.610352,-41.625977,37.780762,0.871338,0.023438,0.345337
-0.610352,-41.625977,37.780762,0.871338,0.023438,0.345337
-7.080078,-41.564941,36.926270,0.872803,0.020142,0.336060
-7.080078,-41.564941,36.926270,0.872803,0.020142,0.336060
-7.080078,-41.564941,36.926270,0.872803,0.020142,0.336060
-13.549805,-41.625977,36.010742,0.875000,0.004395,0.330322
-13.549805,-41.625977,36.010742,0.875000,0.004395,0.330322
-19.104004,-41.809082,35.034180,0.875122,-0.016602,0.326782
-19.104004,-41.809082,35.034180,0.875122,-0.016602,0.326782
-23.010254,-42.114258,34.240723,0.875122,-0.035400,0.325439
-23.010254,-42.114258,34.240723,0.875122,-0.035400,0.325439
-23.010254,-42.114258,34.240723,0.875122,-0.035400,0.325439
-25.146484,-42.480469,33.691406,0.875244,-0.048950,0.323120
-25.146484,-42.480469,33.691406,0.875244,-0.048950,0.323120
-25.512695,-42.968750,33.325195,0.876831,-0.057617,0.314697
-25.512695,-42.968750,33.325195,0.876831,-0.057617,0.314697
-25.512695,-42.968750,33.325195,0.878662,-0.065186,0.299805
-24.780273,-43.457031,33.081055,0.878662,-0.065186,0.299805
-24.780273,-43.457031,33.081055,0.878662,-0.065186,0.299805
-23.193359,-43.884277,33.020020,0.881958,-0.074097,0.282471
-23.193359,-43.884277,33.020020,0.881958,-0.074097,0.282471
-20.935059,-44.311523,33.081055,0.885254,-0.084595,0.263916
-20.935059,-44.311523,33.081055,0.885254,-0.084595,0.263916
-20.935059,-44.311523,33.081055,0.885254,-0.084595,0.263916
-18.310547,-44.616699,33.203125,0.887817,-0.091797,0.241333
-18.310547,-44.616699,33.203125,0.887817,-0.091797,0.241333
-16.113281,-44.799805,33.264160,0.892578,-0.097290,0.218994
-16.113281,-44.799805,33.264160,0.892578,-0.097290,0.218994
-14.587402,-44.860840,33.203125,0.896973,-0.105347,0.201172
-14.587402,-44.860840,33.203125,0.896973,-0.105347,0.201172
-14.587402,-44.860840,33.203125,0.896973,-0.105347,0.201172
-13.793945,-44.799805,33.020020,0.899780,-0.114624,0.184692
-13.793945,-44.799805,33.020020,0.899780,-0.114624,0.184692
-13.793945,-44.616699,32.775879,0.902344,-0.123535,0.168823
-13.793945,-44.616699,32.775879,0.902344,-0.123535,0.168823
-13.793945,-44.616699,32.775879,0.905273,-0.131226,0.153198
-14.343262,-44.433594,32.409668,0.905273,-0.131226,0.153198
-14.343262,-44.433594,32.409668,0.905273,-0.131226,0.153198
-15.441895,-44.189453,31.921387,0.909180,-0.135986,0.134521
-15.441895,-44.189453,31.921387,0.909180,-0.135986,0.134521
-17.150879,-43.884277,31.372070,0.913086,-0.143188,0.116577
-17.150879,-43.884277,31.372070,0.913086,-0.143188,0.116577
-17.150879,-43.884277,31.372070,0.913086,-0.143188,0.116577
-19.287109,-43.334961,30.700684,0.915527,-0.154053,0.101196
-19.287109,-43.334961,30.700684,0.915527,-0.154053,0.101196
-21.911621,-42.907715,29.968262,0.919189,-0.166138,0.088379
-21.911621,-42.907715,29.968262,0.919189,-0.166138,0.088379
-24.780273,-42.480469,29.052734,0.922241,-0.177002,0.079834
-24.780273,-42.480469,29.052734,0.922241,-0.177002,0.079834
-24.780273,-42.480469,29.052734,0.922241,-0.177002,0.079834
-27.954102,-42.053223,28.076172,0.922974,-0.183960,0.074097
-27.954102,-42.053223,28.076172,0.922974,-0.183960,0.074097
-31.372070,-41.625977,27.038574,0.923828,-0.191895,0.070312
-31.372070,-41.625977,27.038574,0.923828,-0.191895,0.070312
-31.372070,-41.625977,27.038574,0.924072,-0.201538,0.067139
-34.545898,-41.259766,26.000977,0.924072,-0.201538,0.067139
-34.545898,-41.259766,26.000977,0.924072,-0.201538,0.067139
-37.231445,-41.076660,24.963379,0.924194,-0.211426,0.062866
-37.231445,-41.076660,24.963379,0.924194,-0.211426,0.062866
-38.940430,-40.771484,24.047852,0.925903,-0.222290,0.057007
-38.940430,-40.771484,24.047852,0.925903,-0.222290,0.057007
-38.940430,-40.771484,24.047852,0.925903,-0.222290,0.057007
-39.367676,-40.649414,23.254395,0.927124,-0.230957,0.049805
-39.367676,-40.649414,23.254395,0.927124,-0.230957,0.049805
-38.391113,-40.527344,22.705078,0.927856,-0.239380,0.041626
-38.391113,-40.527344,22.705078,0.927856,-0.239380,0.041626
-36.132812,-40.466309,22.338867,0.929077,-0.245239,0.034912
-36.132812,-40.466309,22.338867,0.929077,-0.245239,0.034912
-36.132812,-40.466309,22.338867,0.929077,-0.245239,0.034912
-33.081055,-40.405273,22.094727,0.929810,-0.248901,0.030396
-33.081055,-40.405273,22.094727,0.929810,-0.248901,0.030396
-29.724121,-40.466309,21.850586,0.930298,-0.254272,0.025757
-29.724121,-40.466309,21.850586,0.930298,-0.254272,0.025757
-29.724121,-40.466309,21.850586,0.931274,-0.257324,0.021362
-26.550293,-40.466309,21.667480,0.931274,-0.257324,0.021362
-26.550293,-40.466309,21.667480,0.931274,-0.257324,0.021362
-24.047852,-40.405273,21.423340,0.931030,-0.254517,0.013184
-24.047852,-40.405273,21.423340,0.931030,-0.254517,0.013184
-22.644043,-40.283203,21.118164,0.931519,-0.250610,0.001343
-22.644043,-40.283203,21.118164,0.931519,-0.250610,0.001343
-22.644043,-40.283203,21.118164,0.931519,-0.250610,0.001343
-22.033691,-40.161133,20.751953,0.932983,-0.250000,-0.005127
-22.033691,-40.161133,20.751953,0.932983,-0.250000,-0.005127
-21.484375,-40.039062,20.385742,0.932617,-0.249878,-0.007690
-21.484375,-40.039062,20.385742,0.932617,-0.249878,-0.007690
-20.385742,-39.916992,20.141602,0.932373,-0.252563,-0.013672
-20.385742,-39.916992,20.141602,0.932373,-0.252563,-0.013672
-20.385742,-39.916992,20.141602,0.932373,-0.252563,-0.013672
-18.310547,-39.916992,20.019531,0.932007,-0.257080,-0.023071
-18.310547,-39.916992,20.019531,0.932007,-0.257080,-0.023071
-15.502930,-39.916992,20.019531,0.932251,-0.259155,-0.031372
-15.502930,-39.916992,20.019531,0.932251,-0.259155,-0.031372
-15.502930,-39.916992,20.019531,0.931396,-0.258789,-0.037598
-12.451172,-39.855957,20.141602,0.931396,-0.258789,-0.037598
-12.451172,-39.855957,20.141602,0.931396,-0.258789,-0.037598
-9.643555,-39.794922,20.263672,0.932373,-0.259155,-0.044800
-9.643555,-39.794922,20.263672,0.932373,-0.259155,-0.044800
-7.751465,-39.672852,20.263672,0.934082,-0.260254,-0.055542
-7.751465,-39.672852,20.263672,0.934082,-0.260254,-0.055542
-7.751465,-39.672852,20.263672,0.934082,-0.260254,-0.055542
-7.263184,-39.489746,20.141602,0.933472,-0.258667,-0.068237
-7.263184,-39.489746,20.141602,0.933472,-0.258667,-0.068237
-8.544922,-39.184570,19.714355,0.933350,-0.257324,-0.083374
-8.544922,-39.184570,19.714355,0.933350,-0.257324,-0.083374
-11.047363,-38.757324,19.165039,0.934326,-0.260254,-0.101929
-11.047363,-38.757324,19.165039,0.934326,-0.260254,-0.101929
-11.047363,-38.757324,19.165039,0.934326,-0.260254,-0.101929
-14.221191,-38.269043,18.493652,0.936279,-0.264648,-0.117676
-14.221191,-38.269043,18.493652,0.936279,-0.264648,-0.117676
-17.272949,-37.719727,17.822266,0.936401,-0.266479,-0.128052
-17.272949,-37.719727,17.822266,0.936401,-0.266479,-0.128052
-17.272949,-37.719727,17.822266,0.936768,-0.268066,-0.136719
-19.775391,-37.231445,17.211914,0.936768,-0.268066,-0.136719
-19.775391,-37.231445,17.211914,0.936768,-0.268066,-0.136719
-21.911621,-36.804199,16.662598,0.934692,-0.269531,-0.144409
-21.911621,-36.804199,16.662598,0.934692,-0.269531,-0.144409
-24.353027,-36.315918,16.052246,0.933228,-0.268066,-0.146851
-24.353027,-36.315918,16.052246,0.933228,-0.268066,-0.146851
-24.353027,-36.315918,16.052246,0.933228,-0.268066,-0.146851
-26.916504,-35.888672,15.502930,0.933350,-0.265015,-0.145508
-26.916504,-35.888672,15.502930,0.933350,-0.265015,-0.145508
-29.663086,-35.583496,14.892578,0.929443,-0.262695,-0.147461
-29.663086,-35.583496,14.892578,0.929443,-0.262695,-0.147461
-32.409668,-35.278320,14.282227,0.930420,-0.265137,-0.154663
-32.409668,-35.278320,14.282227,0.930420,-0.265137,-0.154663
-32.409668,-35.278320,14.282227,0.930420,-0.265137,-0.154663
-35.095215,-34.912109,13.610840,0.932983,-0.273926,-0.168457
-35.095215,-34.912109,13.610840,0.932983,-0.273926,-0.168457
-37.475586,-34.545898,12.939453,0.933228,-0.288696,-0.190796
-37.475586,-34.545898,12.939453,0.933228,-0.288696,-0.190796
-37.475586,-34.545898,12.939453,0.937866,-0.311279,-0.222778
-39.306641,-34.057617,12.207031,0.937866,-0.311279,-0.222778
-39.306641,-34.057617,12.207031,0.937866,-0.311279,-0.222778
-40.649414,-33.325195,11.352539,0.940430,-0.334106,-0.256470
-40.649414,-33.325195,11.352539,0.940430,-0.334106,-0.256470
-41.687012,-32.592773,10.437012,0.939697,-0.348755,-0.276611
-41.687012,-32.592773,10.437012,0.939697,-0.348755,-0.276611
-41.687012,-32.592773,10.437012,0.939697,-0.348755,-0.276611
-42.663574,-31.738281,9.460449,0.940674,-0.357422,-0.282471
-42.663574,-31.738281,9.460449,0.940674,-0.357422,-0.282471
-43.701172,-30.944824,8.422852,0.941650,-0.362427,-0.282837
-43.701172,-30.944824,8.422852,0.941650,-0.362427,-0.282837
-44.860840,-30.212402,7.385254,0.938965,-0.364380,-0.282837
-44.860840,-30.212402,7.385254,0.938965,-0.364380,-0.282837
-44.860840,-30.212402,7.385254,0.938965,-0.364380,-0.282837
-46.447754,-29.541016,6.286621,0.938110,-0.362793,-0.279785
-46.447754,-29.541016,6.286621,0.938110,-0.362793,-0.279785
-48.156738,-28.930664,5.126953,0.938110,-0.359009,-0.271851
-48.156738,-28.930664,5.126953,0.938110,-0.359009,-0.271851
-48.156738,-28.930664,5.126953,0.933960,-0.358032,-0.263184
-49.499512,-28.503418,4.089355,0.933960,-0.358032,-0.263184
-49.499512,-28.503418,4.089355,0.933960,-0.358032,-0.263184
-49.621582,-28.137207,3.112793,0.931519,-0.361938,-0.259399
-49.621582,-28.137207,3.112793,0.931519,-0.361938,-0.259399
-48.278809,-27.893066,2.380371,0.929688,-0.368042,-0.260498
-48.278809,-27.893066,2.380371,0.929688,-0.368042,-0.260498
-48.278809,-27.893066,2.380371,0.929688,-0.368042,-0.260498
-45.227051,-27.709961,1.831055,0.926636,-0.375977,-0.265381
-45.227051,-27.709961,1.831055,0.926636,-0.375977,-0.265381
-40.832520,-27.587891,1.403809,0.924927,-0.383423,-0.274780
-40.832520,-27.587891,1.403809,0.924927,-0.383423,-0.274780
-35.522461,-27.465820,1.220703,0.926025,-0.388062,-0.283936
-35.522461,-27.465820,1.220703,0.926025,-0.388062,-0.283936
-35.522461,-27.465820,1.220703,0.926025,-0.388062,-0.283936
-29.357910,-27.343750,1.037598,0.927490,-0.388916,-0.290649
-29.357910,-27.343750,1.037598,0.927490,-0.388916,-0.290649
-22.460938,-27.221680,1.037598,0.926514,-0.387573,-0.296265
-22.460938,-27.221680,1.037598,0.926514,-0.387573,-0.296265
-15.075684,-27.160645,1.098633,0.925781,-0.386353,-0.302368
-15.075684,-27.160645,1.098633,0.925781,-0.386353,-0.302368
-15.075684,-27.160645,1.098633,0.925781,-0.386353,-0.302368
-7.568359,-27.099609,1.281738,0.926514,-0.384277,-0.310547
-7.568359,-27.099609,1.281738,0.926514,-0.384277,-0.310547
-0.976562,-26.916504,1.342773,0.925903,-0.379517,-0.321045
-0.976562,-26.916504,1.342773,0.925903,-0.379517,-0.321045
-0.976562,-26.916504,1.342773,0.925903,-0.379517,-0.321045
3.479004,-26.550293,1.220703,0.925781,-0.366821,-0.332031
3.479004,-26.550293,1.220703,0.925781,-0.366821,-0.332031
5.004883,-26.184082,0.793457,0.926758,-0.349854,-0.338623
5.004883,-26.184082,0.793457,0.926758,-0.349854,-0.338623
4.028320,-25.573730,0.122070,0.926514,-0.337891,-0.343628
4.028320,-25.573730,0.122070,0.926514,-0.337891,-0.343628
4.028320,-25.573730,0.122070,0.926514,-0.337891,-0.343628
1.831055,-24.963379,-0.671387,0.925903,-0.330078,-0.349487
1.831055,-24.963379,-0.671387,0.925903,-0.330078,-0.349487
-0.305176,-24.353027,-1.464844,0.926758,-0.326904,-0.354736
-0.305176,-24.353027,-1.464844,0.926758,-0.326904,-0.354736
-1.464844,-23.803711,-2.075195,0.927979,-0.328979,-0.363770
-1.464844,-23.803711,-2.075195,0.927979,-0.328979,-0.363770
-1.464844,-23.803711,-2.075195,0.927979,-0.328979,-0.363770
-1.281738,-23.254395,-2.502441,0.925659,-0.334717,-0.370239
-1.281738,-23.254395,-2.502441,0.925659,-0.334717,-0.370239
0.915527,-22.766113,-2.746582,0.922241,-0.342529,-0.365845
0.915527,-22.766113,-2.746582,0.922241,-0.342529,-0.365845
0.915527,-22.766113,-2.746582,0.922241,-0.342529,-0.36584
-56.213379,18.920898,12.939453,1.082886,-0.018677,0.469604
-54.382324,13.732910,13.732910,1.104370,-0.032593,0.475464
-54.382324,13.732910,13.732910,1.104370,-0.032593,0.475464
-47.912598,8.361816,14.953613,1.110352,-0.061523,0.478516
-47.912598,8.361816,14.953613,1.110352,-0.061523,0.478516
-35.949707,2.624512,16.662598,1.097168,-0.091675,0.481689
-35.949707,2.624512,16.662598,1.097168,-0.091675,0.481689
-35.949707,2.624512,16.662598,1.097168,-0.091675,0.481689
-19.470215,-3.356934,18.615723,1.076904,-0.116943,0.484863
-19.470215,-3.356934,18.615723,1.076904,-0.116943,0.484863
-1.037598,-9.277344,20.629883,1.053223,-0.127686,0.487183
-1.037598,-9.277344,20.629883,1.053223,-0.127686,0.487183
-1.037598,-9.277344,20.629883,1.031616,-0.119019,0.483032
16.357422,-15.136719,22.460938,1.031616,-0.119019,0.483032
16.357422,-15.136719,22.460938,1.031616,-0.119019,0.483032
30.456543,-20.629883,23.986816,1.013062,-0.093506,0.468140
30.456543,-20.629883,23.986816,1.013062,-0.093506,0.468140
40.100098,-25.390625,25.268555,0.990234,-0.061035,0.447388
40.100098,-25.390625,25.268555,0.990234,-0.061035,0.447388
40.100098,-25.390625,25.268555,0.990234,-0.061035,0.447388
45.776367,-29.724121,26.306152,0.965698,-0.030273,0.425903
45.776367,-29.724121,26.306152,0.965698,-0.030273,0.425903
48.278809,-33.508301,27.282715,0.950928,-0.001343,0.401733
48.278809,-33.508301,27.282715,0.950928,-0.001343,0.401733
47.790527,-36.743164,28.137207,0.940186,0.028076,0.378296
47.790527,-36.743164,28.137207,0.940186,0.028076,0.378296
47.790527,-36.743164,28.137207,0.940186,0.028076,0.378296
44.189453,-39.428711,28.808594,0.929565,0.053833,0.359009
44.189453,-39.428711,28.808594,0.929565,0.053833,0.359009
37.658691,-41.687012,29.235840,0.922607,0.069824,0.343872
37.658691,-41.687012,29.235840,0.922607,0.069824,0.343872
37.658691,-41.687012,29.235840,0.912231,0.075195,0.332764
28.930664,-43.701172,29.357910,0.912231,0.075195,0.332764
28.930664,-43.701172,29.357910,0.912231,0.075195,0.332764
19.714355,-45.532227,29.235840,0.895508,0.065918,0.322388
19.714355,-45.532227,29.235840,0.895508,0.065918,0.322388
12.207031,-47.241211,29.113770,0.882080,0.045044,0.308716
12.207031,-47.241211,29.113770,0.882080,0.045044,0.308716
12.207031,-47.241211,29.113770,0.882080,0.045044,0.308716
7.873535,-48.950195,29.052734,0.880859,0.018188,0.295410
7.873535,-48.950195,29.052734,0.880859,0.018188,0.295410
7.141113,-50.598145,29.235840,0.882446,-0.003662,0.282715
7.141113,-50.598145,29.235840,0.882446,-0.003662,0.282715
9.216309,-52.307129,29.663086,0.882690,-0.012085,0.271240
9.216309,-52.307129,29.663086,0.882690,-0.012085,0.271240
9.216309,-52.307129,29.663086,0.882690,-0.012085,0.271240
12.329102,-53.771973,30.212402,0.888062,-0.017456,0.265869
12.329102,-53.771973,30.212402,0.888062,-0.017456,0.265869
15.563965,-55.175781,30.761719,0.891846,-0.022339,0.267090
15.563965,-55.175781,30.761719,0.891846,-0.022339,0.267090
15.563965,-55.175781,30.761719,0.889648,-0.025513,0.269043
18.493652,-56.579590,31.250000,0.889648,-0.025513,0.269043
18.493652,-56.579590,31.250000,0.889648,-0.025513,0.269043
21.606445,-57.922363,31.677246,0.887817,-0.029663,0.273193
21.606445,-57.922363,31.677246,0.887817,-0.029663,0.273193
24.841309,-59.326172,32.043457,0.889160,-0.034668,0.275146
24.841309,-59.326172,32.043457,0.889160,-0.034668,0.275146
24.841309,-59.326172,32.043457,0.889160,-0.034668,0.275146
28.137207,-60.546875,32.409668,0.885864,-0.038330,0.269653
28.137207,-60.546875,32.409668,0.885864,-0.038330,0.269653
31.677246,-61.706543,32.775879,0.879883,-0.042114,0.261353
31.677246,-61.706543,32.775879,0.879883,-0.042114,0.261353
35.095215,-62.561035,33.081055,0.880005,-0.044189,0.247681
35.095215,-62.561035,33.081055,0.880005,-0.044189,0.247681
35.095215,-62.561035,33.081055,0.880005,-0.044189,0.247681
36.315918,-56.152344,27.099609,1.529419,0.050903,0.499512
36.315918,-56.152344,27.099609,1.529419,0.050903,0.499512
50.964355,-37.597656,3.540039,0.876221,0.420410,0.844238
50.964355,-37.597656,3.540039,0.876221,0.420410,0.844238
50.964355,-37.597656,3.540039,0.106812,0.357422,0.634766
76.843262,-49.804688,17.211914,0.106812,0.357422,0.634766
76.843262,-49.804688,17.211914,0.106812,0.357422,0.634766
50.170898,-47.973633,16.662598,0.918457,-0.059448,0.242920
50.170898,-47.973633,16.662598,0.918457,-0.059448,0.242920
37.719727,-46.752930,16.235352,1.020630,0.040405,0.219360
37.719727,-46.752930,16.235352,1.020630,0.040405,0.219360
37.719727,-46.752930,16.235352,1.020630,0.040405,0.219360
38.574219,-46.630859,16.906738,0.884155,0.164551,0.352661
38.574219,-46.630859,16.906738,0.884155,0.164551,0.352661
28.442383,-46.508789,16.723633,0.924683,0.061646,0.328979
28.442383,-46.508789,16.723633,0.924683,0.061646,0.328979
14.282227,-45.959473,15.258789,0.913696,0.018066,0.250854
14.282227,-45.959473,15.258789,0.913696,0.018066,0.250854
14.282227,-45.959473,15.258789,0.913696,0.018066,0.250854
5.249023,-45.654297,14.099121,0.911621,0.023804,0.276733
5.249023,-45.654297,14.099121,0.911621,0.023804,0.276733
0.610352,-45.593262,13.854980,0.912109,0.014282,0.306274
0.610352,-45.593262,13.854980,0.912109,0.014282,0.306274
0.610352,-45.593262,13.854980,0.905029,-0.014893,0.320190
-1.281738,-45.898438,13.610840,0.905029,-0.014893,0.320190
-1.281738,-45.898438,13.610840,0.905029,-0.014893,0.320190
-0.244141,-46.386719,13.854980,0.903931,-0.038574,0.322632
-0.244141,-46.386719,13.854980,0.903931,-0.038574,0.322632
2.624512,-47.119141,14.160156,0.902954,-0.049927,0.321655
2.624512,-47.119141,14.160156,0.902954,-0.049927,0.321655
2.624512,-47.119141,14.160156,0.902954,-0.049927,0.321655
5.920410,-47.851562,14.648438,0.901978,-0.060791,0.326904
5.920410,-47.851562,14.648438,0.901978,-0.060791,0.326904
9.887695,-48.645020,15.075684,0.901245,-0.078125,0.329834
9.887695,-48.645020,15.075684,0.901245,-0.078125,0.329834
15.441895,-49.560547,15.625000,0.899536,-0.099731,0.322388
15.441895,-49.560547,15.625000,0.899536,-0.099731,0.322388
15.441895,-49.560547,15.625000,0.899536,-0.099731,0.322388
22.644043,-50.537109,16.479492,0.900024,-0.114014,0.307129
22.644043,-50.537109,16.479492,0.900024,-0.114014,0.307129
31.250000,-51.513672,17.517090,0.902222,-0.121094,0.288940
31.250000,-51.513672,17.517090,0.902222,-0.121094,0.288940
31.250000,-51.513672,17.517090,0.902954,-0.120850,0.269409
40.344238,-52.368164,18.798828,0.902954,-0.120850,0.269409
40.344238,-52.368164,18.798828,0.902954,-0.120850,0.269409
48.950195,-53.161621,20.080566,0.905151,-0.113892,0.250244
48.950195,-53.161621,20.080566,0.905151,-0.113892,0.250244
55.908203,-53.771973,21.179199,0.907959,-0.104736,0.234131
55.908203,-53.771973,21.179199,0.907959,-0.104736,0.234131
55.908203,-53.771973,21.179199,0.907959,-0.104736,0.234131
60.607910,-54.260254,22.216797,0.909302,-0.096313,0.221436
60.607910,-54.260254,22.216797,0.909302,-0.096313,0.221436
62.561035,-54.626465,22.827148,0.909668,-0.091187,0.209839
62.561035,-54.626465,22.827148,0.909668,-0.091187,0.209839
61.767578,-54.931641,23.071289,0.909668,-0.091553,0.202881
61.767578,-54.931641,23.071289,0.909668,-0.091553,0.202881
61.767578,-54.931641,23.071289,0.909668,-0.091553,0.202881
58.776855,-55.114746,23.010254,0.907471,-0.096191,0.198364
58.776855,-55.114746,23.010254,0.907471,-0.096191,0.198364
54.870605,-55.358887,22.705078,0.904419,-0.100708,0.190918
54.870605,-55.358887,22.705078,0.904419,-0.100708,0.190918
54.870605,-55.358887,22.705078,0.905273,-0.103394,0.180176
50.781250,-55.603027,22.338867,0.905273,-0.103394,0.180176
50.781250,-55.603027,22.338867,0.905273,-0.103394,0.180176
47.058105,-55.908203,22.094727,0.907104,-0.109741,0.165039
47.058105,-55.908203,22.094727,0.907104,-0.109741,0.165039
44.006348,-56.030273,21.850586,0.907227,-0.120972,0.148193
44.006348,-56.030273,21.850586,0.907227,-0.120972,0.148193
44.006348,-56.030273,21.850586,0.907227,-0.120972,0.148193
42.114258,-56.274414,21.667480,0.906006,-0.133301,0.131348
42.114258,-56.274414,21.667480,0.906006,-0.133301,0.131348
41.015625,-56.579590,21.545410,0.905762,-0.142578,0.115234
41.015625,-56.579590,21.545410,0.905762,-0.142578,0.115234
40.405273,-56.701660,21.484375,0.907593,-0.148438,0.102661
40.405273,-56.701660,21.484375,0.907593,-0.148438,0.102661
40.405273,-56.701660,21.484375,0.907593,-0.148438,0.102661
39.978027,-56.945801,21.423340,0.904419,-0.151245,0.092041
39.978027,-56.945801,21.423340,0.904419,-0.151245,0.092041
39.428711,-57.067871,21.362305,0.908325,-0.154053,0.080200
39.428711,-57.067871,21.362305,0.908325,-0.154053,0.080200
39.428711,-57.067871,21.362305,0.908813,-0.157593,0.063110
38.452148,-57.250977,21.240234,0.908813,-0.157593,0.063110
38.452148,-57.250977,21.240234,0.908813,-0.157593,0.063110
36.804199,-57.373047,20.996094,0.906860,-0.161133,0.045166
36.804199,-57.373047,20.996094,0.906860,-0.161133,0.045166
34.545898,-57.373047,20.629883,0.909668,-0.166870,0.027832
34.545898,-57.373047,20.629883,0.909668,-0.166870,0.027832
34.545898,-57.373047,20.629883,0.909668,-0.166870,0.027832
31.799316,-57.312012,20.141602,0.908325,-0.173828,0.008789
31.799316,-57.312012,20.141602,0.908325,-0.173828,0.008789
28.503418,-57.128906,19.531250,0.909546,-0.183472,-0.010498
28.503418,-57.128906,19.531250,0.909546,-0.183472,-0.010498
24.963379,-56.945801,18.798828,0.911011,-0.194946,-0.029785
24.963379,-56.945801,18.798828,0.911011,-0.194946,-0.029785
24.963379,-56.945801,18.798828,0.911011,-0.194946,-0.029785
21.362305,-56.701660,17.944336,0.912109,-0.208130,-0.046387
21.362305,-56.701660,17.944336,0.912109,-0.208130,-0.046387
18.188477,-56.396484,17.028809,0.912109,-0.222900,-0.062744
18.188477,-56.396484,17.028809,0.912109,-0.222900,-0.062744
18.188477,-56.396484,17.028809,0.912354,-0.238647,-0.082153
15.686035,-56.152344,16.113281,0.912354,-0.238647,-0.082153
15.686035,-56.152344,16.113281,0.912354,-0.238647,-0.082153
13.671875,-55.847168,15.197754,0.911865,-0.253296,-0.102295
13.671875,-55.847168,15.197754,0.911865,-0.253296,-0.102295
12.268066,-55.480957,14.221191,0.914062,-0.263794,-0.115479
12.268066,-55.480957,14.221191,0.914062,-0.263794,-0.115479
12.268066,-55.480957,14.221191,0.914062,-0.263794,-0.115479
11.535645,-55.175781,13.305664,0.914795,-0.270752,-0.121338
11.535645,-55.175781,13.305664,0.914795,-0.270752,-0.121338
11.352539,-54.931641,12.512207,0.912476,-0.275024,-0.126099
11.352539,-54.931641,12.512207,0.912476,-0.275024,-0.126099
11.779785,-54.748535,11.779785,0.911621,-0.278931,-0.134155
11.779785,-54.748535,11.779785,0.911621,-0.278931,-0.134155
11.779785,-54.748535,11.779785,0.911621,-0.278931,-0.134155
12.634277,-54.565430,11.047363,0.911499,-0.282104,-0.145630
12.634277,-54.565430,11.047363,0.911499,-0.282104,-0.145630
13.610840,-54.382324,10.375977,0.911499,-0.280273,-0.161377
13.610840,-54.382324,10.375977,0.911499,-0.280273,-0.161377
13.610840,-54.382324,10.375977,0.914551,-0.274292,-0.181519
13.977051,-54.077148,9.704590,0.914551,-0.274292,-0.181519
13.977051,-54.077148,9.704590,0.914551,-0.274292,-0.181519
13.427734,-53.649902,8.911133,0.916260,-0.268555,-0.202515
13.427734,-53.649902,8.911133,0.916260,-0.268555,-0.202515
12.145996,-53.222656,8.056641,0.917603,-0.264526,-0.221924
12.145996,-53.222656,8.056641,0.917603,-0.264526,-0.221924
12.145996,-53.222656,8.056641,0.917603,-0.264526,-0.221924
10.864258,-52.612305,7.263184,0.919067,-0.261597,-0.240845
10.864258,-52.612305,7.263184,0.919067,-0.261597,-0.240845
10.131836,-52.001953,6.530762,0.920898,-0.262695,-0.262817
10.131836,-52.001953,6.530762,0.920898,-0.262695,-0.262817
10.375977,-51.330566,5.859375,0.923584,-0.268555,-0.287720
10.375977,-51.330566,5.859375,0.923584,-0.268555,-0.287720
10.375977,-51.330566,5.859375,0.923584,-0.268555,-0.287720
12.023926,-50.598145,5.432129,0.925049,-0.276489,-0.313843
12.023926,-50.598145,5.432129,0.925049,-0.276489,-0.313843
15.197754,-49.987793,5.249023,0.928223,-0.279541,-0.337036
15.197754,-49.987793,5.249023,0.928223,-0.279541,-0.337036
20.324707,-49.255371,5.493164,0.929810,-0.271729,-0.351440
20.324707,-49.255371,5.493164,0.929810,-0.271729,-0.351440
20.324707,-49.255371,5.493164,0.929810,-0.271729,-0.351440
26.794434,-48.034668,5.981445,0.931885,-0.252441,-0.362427
26.794434,-48.034668,5.981445,0.931885,-0.252441,-0.362427
32.592773,-47.363281,6.530762,0.936523,-0.226929,-0.379761
32.592773,-47.363281,6.530762,0.936523,-0.226929,-0.379761
32.592773,-47.363281,6.530762,0.936523,-0.226929,-0.379761
35.888672,-46.264648,7.019043,0.940552,-0.205933,-0.406738
35.888672,-46.264648,7.019043,0.940552,-0.205933,-0.406738
36.132812,-45.043945,7.202148,0.943848,-0.194458,-0.432983
36.132812,-45.043945,7.202148,0.943848,-0.194458,-0.432983
33.508301,-43.457031,7.019043,0.947998,-0.187866,-0.453369
33.508301,-43.457031,7.019043,0.947998,-0.187866,-0.453369
33.508301,-43.457031,7.019043,0.947998,-0.187866,-0.453369
28.930664,-41.748047,6.652832,0.952148,-0.183838,-0.474365
28.930664,-41.748047,6.652832,0.952148,-0.183838,-0.474365
23.376465,-39.916992,6.042480,0.954346,-0.182007,-0.488037
23.376465,-39.916992,6.042480,0.954346,-0.182007,-0.488037
17.700195,-38.085938,5.432129,0.955322,-0.179199,-0.488281
17.700195,-38.085938,5.432129,0.955322,-0.179199,-0.488281
17.700195,-38.085938,5.432129,0.955322,-0.179199,-0.488281
12.695312,-36.376953,4.943848,0.954346,-0.167236,-0.480347
12.695312,-36.376953,4.943848,0.954346,-0.167236,-0.480347
8.117676,-34.729004,4.577637,0.951172,-0.144043,-0.469238
8.117676,-34.729004,4.577637,0.951172,-0.144043,-0.469238
8.117676,-34.729004,4.577637,0.951172,-0.144043,-0.469238
3.662109,-33.203125,4.394531,0.947998,-0.124023,-0.461792
3.662109,-33.203125,4.394531,0.947998,-0.124023,-0.461792
-1.403809,-31.738281,4.150391,0.950806,-0.119629,-0.465332
-1.403809,-31.738281,4.150391,0.950806,-0.119629,-0.465332
-6.530762,-30.273438,3.845215,0.952148,-0.134766,-0.478394
-6.530762,-30.273438,3.845215,0.952148,-0.134766,-0.478394
-6.530762,-30.273438,3.845215,0.952148,-0.134766,-0.478394
-10.437012,-28.747559,3.479004,0.951172,-0.164307,-0.493286
-10.437012,-28.747559,3.479004,0.951172,-0.164307,-0.493286
-12.023926,-27.343750,3.295898,0.951538,-0.197876,-0.497681
-12.023926,-27.343750,3.295898,0.951538,-0.197876,-0.497681
-10.437012,-26.062012,3.295898,0.949707,-0.229492,-0.492310
-10.437012,-26.062012,3.295898,0.949707,-0.229492,-0.492310
-10.437012,-26.062012,3.295898,0.949707,-0.229492,-0.492310
-5.493164,-24.963379,3.662109,0.946899,-0.254395,-0.488403
-5.493164,-24.963379,3.662109,0.946899,-0.254395,-0.488403
1.403809,-23.986816,4.150391,0.946289,-0.269775,-0.491821
1.403809,-23.986816,4.150391,0.946289,-0.269775,-0.491821
1.403809,-23.986816,4.150391,0.949219,-0.283691,-0.507324
8.789062,-23.010254,4.638672,0.949219,-0.283691,-0.507324
8.789062,-23.010254,4.638672,0.949219,-0.283691,-0.50732
17.578125,17.333984,-2.807617,1.087769,-0.098511,0.373535
21.362305,13.244629,-2.563477,1.078735,-0.090698,0.360596
21.362305,13.244629,-2.563477,1.078735,-0.090698,0.360596
21.362305,13.244629,-2.563477,1.058838,-0.073853,0.347900
24.780273,9.338379,-2.258301,1.058838,-0.073853,0.347900
24.780273,9.338379,-2.258301,1.058838,-0.073853,0.347900
27.038574,5.554199,-1.892090,1.030640,-0.054321,0.338013
27.038574,5.554199,-1.892090,1.030640,-0.054321,0.338013
27.343750,2.014160,-1.525879,1.003052,-0.031494,0.331299
27.343750,2.014160,-1.525879,1.003052,-0.031494,0.331299
27.343750,2.014160,-1.525879,1.003052,-0.031494,0.331299
25.329590,-1.525879,-1.281738,0.982666,-0.009033,0.327271
25.329590,-1.525879,-1.281738,0.982666,-0.009033,0.327271
20.996094,-4.760742,-1.159668,0.966919,0.005981,0.316895
20.996094,-4.760742,-1.159668,0.966919,0.005981,0.316895
14.648438,-7.751465,-1.220703,0.956787,0.013550,0.302734
14.648438,-7.751465,-1.220703,0.956787,0.013550,0.302734
14.648438,-7.751465,-1.220703,0.956787,0.013550,0.302734
7.446289,-10.498047,-1.464844,0.957642,0.011353,0.289551
7.446289,-10.498047,-1.464844,0.957642,0.011353,0.289551
0.671387,-13.122559,-1.770020,0.963257,0.000732,0.276123
0.671387,-13.122559,-1.770020,0.963257,0.000732,0.276123
0.671387,-13.122559,-1.770020,0.970947,-0.016846,0.261230
-4.150391,-15.625000,-1.953125,0.970947,-0.016846,0.261230
-4.150391,-15.625000,-1.953125,0.970947,-0.016846,0.261230
-6.408691,-17.944336,-2.014160,0.983643,-0.037964,0.247192
-6.408691,-17.944336,-2.014160,0.983643,-0.037964,0.247192
-6.591797,-20.202637,-2.014160,1.000000,-0.053345,0.240356
-6.591797,-20.202637,-2.014160,1.000000,-0.053345,0.240356
-6.591797,-20.202637,-2.014160,1.000000,-0.053345,0.240356
-5.493164,-22.460938,-1.953125,1.016479,-0.063477,0.235596
-5.493164,-22.460938,-1.953125,1.016479,-0.063477,0.235596
-3.479004,-24.658203,-1.892090,1.026123,-0.074707,0.229248
-3.479004,-24.658203,-1.892090,1.026123,-0.074707,0.229248
-0.427246,-26.916504,-1.220703,1.750122,-0.005249,0.608887
-0.427246,-26.916504,-1.220703,1.750122,-0.005249,0.608887
-0.427246,-26.916504,-1.220703,1.750122,-0.005249,0.608887
6.652832,-44.250488,13.671875,2.110107,-0.159790,0.565186
6.652832,-44.250488,13.671875,2.110107,-0.159790,0.565186
-2.929688,-45.898438,12.207031,0.872803,-0.037842,0.231201
-2.929688,-45.898438,12.207031,0.872803,-0.037842,0.231201
-2.929688,-45.898438,12.207031,0.081665,0.280518,0.470947
-8.605957,-49.804688,15.502930,0.081665,0.280518,0.470947
-8.605957,-49.804688,15.502930,0.081665,0.280518,0.470947
-3.051758,-57.250977,19.470215,0.331665,0.148926,0.406982
-3.051758,-57.250977,19.470215,0.331665,0.148926,0.406982
-12.756348,-50.231934,14.892578,0.898315,0.132080,0.435913
-12.756348,-50.231934,14.892578,0.898315,0.132080,0.435913
-12.756348,-50.231934,14.892578,0.898315,0.132080,0.435913
-20.385742,-42.419434,12.268066,1.028320,0.178223,0.505493
-20.385742,-42.419434,12.268066,1.028320,0.178223,0.505493
-15.380859,-44.982910,14.221191,0.782471,0.100830,0.256836
-15.380859,-44.982910,14.221191,0.782471,0.100830,0.256836
-12.512207,-43.457031,15.380859,0.910522,0.053223,0.215454
-12.512207,-43.457031,15.380859,0.910522,0.053223,0.215454
-12.512207,-43.457031,15.380859,0.910522,0.053223,0.215454
-7.141113,-42.419434,16.479492,0.937256,0.032471,0.257446
-7.141113,-42.419434,16.479492,0.937256,0.032471,0.257446
-1.342773,-41.503906,17.761230,0.860229,0.016602,0.255493
-1.342773,-41.503906,17.761230,0.860229,0.016602,0.255493
-1.342773,-41.503906,17.761230,0.898804,0.015259,0.262451
3.784180,-40.771484,18.798828,0.898804,0.015259,0.262451
3.784180,-40.771484,18.798828,0.898804,0.015259,0.262451
7.568359,-40.039062,19.897461,0.914307,0.029907,0.288574
7.568359,-40.039062,19.897461,0.914307,0.029907,0.288574
10.009766,-39.550781,20.874023,0.892212,0.051514,0.317139
10.009766,-39.550781,20.874023,0.892212,0.051514,0.317139
10.009766,-39.550781,20.874023,0.892212,0.051514,0.317139
10.864258,-39.245605,21.728516,0.898804,0.057739,0.344360
10.864258,-39.245605,21.728516,0.898804,0.057739,0.344360
10.253906,-39.001465,22.338867,0.897949,0.049316,0.354980
10.253906,-39.001465,22.338867,0.897949,0.049316,0.354980
8.483887,-38.818359,22.705078,0.896484,0.029541,0.354370
8.483887,-38.818359,22.705078,0.896484,0.029541,0.354370
8.483887,-38.818359,22.705078,0.896484,0.029541,0.354370
6.225586,-38.635254,22.827148,0.899292,0.009888,0.349854
6.225586,-38.635254,22.827148,0.899292,0.009888,0.349854
3.906250,-38.452148,22.888184,0.898193,-0.003052,0.345215
3.906250,-38.452148,22.888184,0.898193,-0.003052,0.345215
3.906250,-38.452148,22.888184,0.897095,-0.009644,0.343384
1.831055,-38.330078,22.949219,0.897095,-0.009644,0.343384
1.831055,-38.330078,22.949219,0.897095,-0.009644,0.343384
0.427246,-38.330078,23.071289,0.900269,-0.012695,0.347168
0.427246,-38.330078,23.071289,0.900269,-0.012695,0.347168
0.183105,-38.452148,23.315430,0.899170,-0.014404,0.351562
0.183105,-38.452148,23.315430,0.899170,-0.014404,0.351562
0.183105,-38.452148,23.315430,0.899170,-0.014404,0.351562
0.793457,-38.635254,23.742676,0.899048,-0.019043,0.349976
0.793457,-38.635254,23.742676,0.899048,-0.019043,0.349976
2.075195,-38.940430,24.291992,0.899658,-0.024902,0.346924
2.075195,-38.940430,24.291992,0.899658,-0.024902,0.346924
3.417969,-39.184570,24.841309,0.896729,-0.026978,0.346924
3.417969,-39.184570,24.841309,0.896729,-0.026978,0.346924
3.417969,-39.184570,24.841309,0.896729,-0.026978,0.346924
4.333496,-39.489746,25.390625,0.902100,-0.027466,0.349731
4.333496,-39.489746,25.390625,0.902100,-0.027466,0.349731
4.455566,-39.855957,25.817871,0.895142,-0.029297,0.348999
4.455566,-39.855957,25.817871,0.895142,-0.029297,0.348999
4.455566,-39.855957,25.817871,0.902954,-0.031128,0.349487
3.906250,-40.222168,26.123047,0.902954,-0.031128,0.349487
3.906250,-40.222168,26.123047,0.902954,-0.031128,0.349487
2.807617,-40.588379,26.428223,0.901245,-0.033325,0.345703
2.807617,-40.588379,26.428223,0.901245,-0.033325,0.345703
1.525879,-41.015625,26.672363,0.895386,-0.036621,0.338989
1.525879,-41.015625,26.672363,0.895386,-0.036621,0.338989
1.525879,-41.015625,26.672363,0.895386,-0.036621,0.338989
0.244141,-41.442871,26.916504,0.901123,-0.038940,0.330078
0.244141,-41.442871,26.916504,0.901123,-0.038940,0.330078
-1.220703,-41.870117,27.160645,0.898071,-0.038574,0.318726
-1.220703,-41.870117,27.160645,0.898071,-0.038574,0.318726
-3.417969,-42.236328,27.343750,0.901367,-0.037720,0.316284
-3.417969,-42.236328,27.343750,0.901367,-0.037720,0.316284
-3.417969,-42.236328,27.343750,0.901367,-0.037720,0.316284
-6.347656,-42.663574,27.404785,0.897461,-0.042847,0.312988
-6.347656,-42.663574,27.404785,0.897461,-0.042847,0.312988
-9.521484,-43.090820,27.404785,0.894897,-0.053833,0.307251
-9.521484,-43.090820,27.404785,0.894897,-0.053833,0.307251
-9.521484,-43.090820,27.404785,0.894287,-0.066162,0.299683
-12.573242,-43.579102,27.282715,0.894287,-0.066162,0.299683
-12.573242,-43.579102,27.282715,0.894287,-0.066162,0.299683
-14.953613,-44.128418,27.221680,0.893188,-0.079712,0.290527
-14.953613,-44.128418,27.221680,0.893188,-0.079712,0.290527
-16.418457,-44.677734,27.221680,0.891602,-0.095215,0.280640
-16.418457,-44.677734,27.221680,0.891602,-0.095215,0.280640
-16.418457,-44.677734,27.221680,0.891602,-0.095215,0.280640
-16.906738,-45.227051,27.282715,0.890625,-0.110229,0.270020
-16.906738,-45.227051,27.282715,0.890625,-0.110229,0.270020
-16.540527,-45.837402,27.404785,0.886597,-0.122070,0.261597
-16.540527,-45.837402,27.404785,0.886597,-0.122070,0.261597
-15.563965,-46.447754,27.648926,0.869873,-0.130981,0.250366
-15.563965,-46.447754,27.648926,0.869873,-0.130981,0.250366
-15.563965,-46.447754,27.648926,0.869873,-0.130981,0.250366
-14.587402,-47.119141,27.832031,0.868896,-0.138794,0.237427
-14.587402,-47.119141,27.832031,0.868896,-0.138794,0.237427
-14.160156,-47.729492,27.954102,0.887085,-0.146484,0.230713
-14.160156,-47.729492,27.954102,0.887085,-0.146484,0.230713
-14.160156,-47.729492,27.954102,0.913818,-0.156250,0.228516
-14.404297,-48.278809,27.954102,0.913818,-0.156250,0.228516
-14.404297,-48.278809,27.954102,0.913818,-0.156250,0.228516
-14.709473,-48.706055,27.893066,0.885254,-0.168335,0.204102
-14.709473,-48.706055,27.893066,0.885254,-0.168335,0.204102
-14.587402,-49.255371,27.770996,0.870728,-0.186035,0.171143
-14.587402,-49.255371,27.770996,0.870728,-0.186035,0.171143
-14.587402,-49.255371,27.770996,0.870728,-0.186035,0.171143
-14.831543,-49.499512,27.587891,0.889771,-0.206421,0.142090
-14.831543,-49.499512,27.587891,0.889771,-0.206421,0.142090
-15.747070,-49.621582,27.099609,0.901489,-0.230469,0.116821
-15.747070,-49.621582,27.099609,0.901489,-0.230469,0.116821
-17.211914,-49.621582,26.489258,0.908691,-0.254028,0.099609
-17.211914,-49.621582,26.489258,0.908691,-0.254028,0.099609
-17.211914,-49.621582,26.489258,0.908691,-0.254028,0.099609
-19.287109,-49.621582,25.573730,0.892456,-0.274780,0.084961
-19.287109,-49.621582,25.573730,0.892456,-0.274780,0.084961
-21.362305,-49.560547,24.536133,0.892334,-0.296753,0.075928
-21.362305,-49.560547,24.536133,0.892334,-0.296753,0.075928
-22.583008,-49.560547,23.498535,0.893921,-0.313965,0.064819
-22.583008,-49.560547,23.498535,0.893921,-0.313965,0.064819
-22.583008,-49.560547,23.498535,0.893921,-0.313965,0.064819
-21.972656,-49.621582,22.705078,0.903687,-0.327148,0.049561
-21.972656,-49.621582,22.705078,0.903687,-0.327148,0.049561
-19.409180,-49.682617,22.094727,0.907349,-0.341309,0.024292
-19.409180,-49.682617,22.094727,0.907349,-0.341309,0.024292
-19.409180,-49.682617,22.094727,0.907349,-0.341309,0.024292
-14.892578,-49.560547,21.789551,0.906738,-0.359131,-0.008423
-14.892578,-49.560547,21.789551,0.906738,-0.359131,-0.008423
-9.277344,-49.377441,21.606445,0.911499,-0.371826,-0.041504
-9.277344,-49.377441,21.606445,0.911499,-0.371826,-0.041504
-3.662109,-49.011230,21.423340,0.917969,-0.376709,-0.071777
-3.662109,-49.011230,21.423340,0.917969,-0.376709,-0.071777
-3.662109,-49.011230,21.423340,0.917969,-0.376709,-0.071777
0.671387,-48.400879,21.118164,0.919312,-0.376099,-0.098999
0.671387,-48.400879,21.118164,0.919312,-0.376099,-0.098999
3.112793,-47.546387,20.629883,0.924805,-0.375610,-0.120728
3.112793,-47.546387,20.629883,0.924805,-0.375610,-0.120728
3.723145,-46.630859,19.775391,0.931641,-0.378784,-0.140503
3.723145,-46.630859,19.775391,0.931641,-0.378784,-0.140503
3.723145,-46.630859,19.775391,0.931641,-0.378784,-0.140503
3.112793,-45.593262,18.859863,0.933472,-0.383911,-0.158569
3.112793,-45.593262,18.859863,0.933472,-0.383911,-0.158569
2.075195,-44.494629,17.822266,0.938721,-0.386719,-0.171875
2.075195,-44.494629,17.822266,0.938721,-0.386719,-0.171875
2.075195,-44.494629,17.822266,0.938721,-0.386719,-0.171875
0.732422,-43.273926,16.723633,0.946533,-0.385986,-0.181030
0.732422,-43.273926,16.723633,0.946533,-0.385986,-0.181030
-1.098633,-42.114258,15.625000,0.942505,-0.384766,-0.187988
-1.098633,-42.114258,15.625000,0.942505,-0.384766,-0.187988
-3.173828,-40.954590,14.526367,0.940918,-0.382690,-0.190430
-3.173828,-40.954590,14.526367,0.940918,-0.382690,-0.190430
-3.173828,-40.954590,14.526367,0.940918,-0.382690,-0.190430
-5.187988,-39.855957,13.427734,0.943604,-0.377930,-0.187012
-5.187988,-39.855957,13.427734,0.943604,-0.377930,-0.187012
-6.958008,-38.879395,12.329102,0.939819,-0.369873,-0.180176
-6.958008,-38.879395,12.329102,0.939819,-0.369873,-0.180176
-8.056641,-38.024902,11.474609,0.939941,-0.360718,-0.172485
-8.056641,-38.024902,11.474609,0.939941,-0.360718,-0.172485
-8.056641,-38.024902,11.474609,0.939941,-0.360718,-0.172485
-8.605957,-37.292480,10.742188,0.940186,-0.353394,-0.169312
-8.605957,-37.292480,10.742188,0.940186,-0.353394,-0.169312
-8.483887,-36.621094,10.192871,0.939941,-0.347900,-0.169800
-8.483887,-36.621094,10.192871,0.939941,-0.347900,-0.169800
-8.483887,-36.621094,10.192871,0.939941,-0.341187,-0.171509
-7.690430,-36.010742,9.887695,0.939941,-0.341187,-0.171509
-7.690430,-36.010742,9.887695,0.939941,-0.341187,-0.171509
-5.920410,-35.461426,9.643555,0.939331,-0.334106,-0.171997
-5.920410,-35.461426,9.643555,0.939331,-0.334106,-0.171997
-3.295898,-35.034180,9.704590,0.937866,-0.325684,-0.170288
-3.295898,-35.034180,9.704590,0.937866,-0.325684,-0.170288
-3.295898,-35.034180,9.704590,0.937866,-0.325684,-0.170288
0.183105,-34.729004,9.948730,0.937988,-0.315308,-0.166748
0.183105,-34.729004,9.948730,0.937988,-0.315308,-0.166748
4.150391,-34.484863,10.437012,0.938110,-0.303467,-0.164307
4.150391,-34.484863,10.437012,0.938110,-0.303467,-0.164307
8.117676,-34.240723,10.986328,0.936035,-0.290771,-0.164429
8.117676,-34.240723,10.986328,0.936035,-0.290771,-0.164429
8.117676,-34.240723,10.986328,0.936035,-0.290771,-0.164429
11.413574,-33.996582,11.596680,0.934814,-0.277954,-0.163330
11.413574,-33.996582,11.596680,0.934814,-0.277954,-0.163330
13.549805,-33.752441,12.207031,0.935059,-0.262451,-0.161499
13.549805,-33.752441,12.207031,0.935059,-0.262451,-0.161499
13.549805,-33.752441,12.207031,0.934448,-0.245239,-0.162231
13.977051,-33.508301,12.695312,0.934448,-0.245239,-0.162231
13.977051,-33.508301,12.695312,0.934448,-0.245239,-0.162231
12.268066,-33.325195,12.878418,0.931152,-0.228882,-0.161743
12.268066,-33.325195,12.878418,0.931152,-0.228882,-0.161743
8.605957,-33.020020,13.000488,0.928101,-0.215454,-0.158081
8.605957,-33.020020,13.000488,0.928101,-0.215454,-0.158081
8.605957,-33.020020,13.000488,0.928101,-0.215454,-0.158081
3.540039,-32.653809,13.000488,0.926392,-0.206909,-0.157349
3.540039,-32.653809,13.000488,0.926392,-0.206909,-0.157349
-2.258301,-32.348633,12.817383,0.924072,-0.203857,-0.159668
-2.258301,-32.348633,12.817383,0.924072,-0.203857,-0.159668
-8.056641,-32.104492,12.695312,0.921753,-0.205444,-0.162354
-8.056641,-32.104492,12.695312,0.921753,-0.205444,-0.162354
-8.056641,-32.104492,12.695312,0.921753,-0.205444,-0.162354
-13.122559,-31.921387,12.573242,0.918945,-0.210083,-0.165161
-13.122559,-31.921387,12.573242,0.918945,-0.210083,-0.165161
-17.089844,-31.860352,12.573242,0.915649,-0.216919,-0.168335
-17.089844,-31.860352,12.573242,0.915649,-0.216919,-0.168335
-17.089844,-31.860352,12.573242,0.905273,-0.223999,-0.170288
-19.592285,-31.799316,12.756348,0.905273,-0.223999,-0.170288
-19.592285,-31.799316,12.756348,0.905273,-0.223999,-0.170288
-20.812988,-31.982422,13.122559,0.910889,-0.231812,-0.169800
-20.812988,-31.982422,13.122559,0.910889,-0.231812,-0.169800
-21.057129,-32.104492,13.549805,0.912109,-0.239014,-0.171387
-21.057129,-32.104492,13.549805,0.912109,-0.239014,-0.171387
-21.057129,-32.104492,13.549805,0.912109,-0.239014,-0.171387
-20.629883,-32.348633,13.977051,0.898315,-0.247803,-0.176880
-20.629883,-32.348633,13.977051,0.898315,-0.247803,-0.176880
-20.019531,-32.592773,14.465332,0.901123,-0.258545,-0.187866
-20.019531,-32.592773,14.465332,0.901123,-0.258545,-0.18786
41.564941,7.507324,0.183105,0.977783,0.002686,0.194702
41.564941,7.507324,0.183105,0.977783,0.002686,0.194702
45.104980,7.934570,0.244141,0.977417,0.007080,0.188843
45.104980,7.934570,0.244141,0.977417,0.007080,0.188843
48.095703,8.422852,0.244141,0.979248,0.017456,0.187256
48.095703,8.422852,0.244141,0.979248,0.017456,0.187256
48.095703,8.422852,0.244141,0.979248,0.017456,0.187256
50.659180,9.033203,0.122070,0.979858,0.023071,0.178711
50.659180,9.033203,0.122070,0.979858,0.023071,0.178711
53.100586,9.582520,0.000000,0.979370,0.025635,0.178223
53.100586,9.582520,0.000000,0.979370,0.025635,0.178223
55.664062,10.070801,-0.061035,0.977783,0.033325,0.189697
55.664062,10.070801,-0.061035,0.977783,0.033325,0.189697
55.664062,10.070801,-0.061035,0.977783,0.033325,0.189697
57.800293,10.498047,-0.122070,0.975464,0.046387,0.199097
57.800293,10.498047,-0.122070,0.975464,0.046387,0.199097
59.265137,10.925293,-0.244141,0.975220,0.065552,0.213135
59.265137,10.925293,-0.244141,0.975220,0.065552,0.213135
59.265137,10.925293,-0.244141,0.975708,0.080811,0.228516
59.936523,11.169434,-0.366211,0.975708,0.080811,0.228516
59.936523,11.169434,-0.366211,0.975708,0.080811,0.228516
60.791016,11.413574,-0.427246,0.973267,0.082153,0.239380
60.791016,11.413574,-0.427246,0.973267,0.082153,0.239380
64.758301,11.474609,-0.061035,0.971313,0.076294,0.240112
64.758301,11.474609,-0.061035,0.971313,0.076294,0.240112
64.758301,11.474609,-0.061035,0.971313,0.076294,0.240112
72.631836,11.535645,0.793457,0.975586,0.064087,0.214233
72.631836,11.535645,0.793457,0.975586,0.064087,0.214233
82.458496,11.901855,1.770020,0.981323,0.043945,0.165894
82.458496,11.901855,1.770020,0.981323,0.043945,0.165894
91.247559,12.512207,2.441406,0.987427,0.035522,0.131104
91.247559,12.512207,2.441406,0.987427,0.035522,0.131104
91.247559,12.512207,2.441406,0.987427,0.035522,0.131104
96.008301,13.305664,2.502441,1.010742,0.052124,0.131348
96.008301,13.305664,2.502441,1.010742,0.052124,0.131348
93.811035,14.526367,1.831055,1.070557,0.083008,0.156128
93.811035,14.526367,1.831055,1.070557,0.083008,0.156128
93.811035,14.526367,1.831055,1.180054,0.105591,0.190674
82.946777,16.357422,1.098633,1.180054,0.105591,0.190674
82.946777,16.357422,1.098633,1.180054,0.105591,0.190674
65.551758,18.493652,0.183105,1.298462,0.114990,0.233154
65.551758,18.493652,0.183105,1.298462,0.114990,0.233154
46.752930,20.507812,-0.732422,1.373047,0.113403,0.283447
46.752930,20.507812,-0.732422,1.373047,0.113403,0.283447
46.752930,20.507812,-0.732422,1.373047,0.113403,0.283447
29.479980,22.155762,-1.464844,1.404297,0.095093,0.331543
29.479980,22.155762,-1.464844,1.404297,0.095093,0.331543
15.258789,23.376465,-2.014160,1.398804,0.067505,0.374634
15.258789,23.376465,-2.014160,1.398804,0.067505,0.374634
4.882812,24.169922,-2.197266,1.364258,0.034912,0.407715
4.882812,24.169922,-2.197266,1.364258,0.034912,0.407715
4.882812,24.169922,-2.197266,1.364258,0.034912,0.407715
-0.488281,24.658203,-2.075195,1.310303,-0.004761,0.423340
-0.488281,24.658203,-2.075195,1.310303,-0.004761,0.423340
1.708984,25.024414,-1.281738,1.246582,-0.050659,0.429810
1.708984,25.024414,-1.281738,1.246582,-0.050659,0.429810
1.708984,25.024414,-1.281738,1.180664,-0.092285,0.439453
12.573242,25.146484,0.366211,1.180664,-0.092285,0.439453
12.573242,25.146484,0.366211,1.180664,-0.092285,0.439453
29.541016,24.902344,2.563477,1.115601,-0.117676,0.454956
29.541016,24.902344,2.563477,1.115601,-0.117676,0.454956
49.194336,24.414062,4.943848,1.059448,-0.129761,0.471436
49.194336,24.414062,4.943848,1.059448,-0.129761,0.471436
49.194336,24.414062,4.943848,1.059448,-0.129761,0.471436
69.763184,23.742676,7.324219,1.015259,-0.135010,0.482788
69.763184,23.742676,7.324219,1.015259,-0.135010,0.482788
91.674805,22.888184,9.704590,0.979736,-0.140991,0.485840
91.674805,22.888184,9.704590,0.979736,-0.140991,0.485840
114.685059,21.911621,12.207031,0.956299,-0.142578,0.480835
114.685059,21.911621,12.207031,0.956299,-0.142578,0.480835
114.685059,21.911621,12.207031,0.956299,-0.142578,0.480835
135.559082,21.057129,14.343262,0.947632,-0.125000,0.475098
135.559082,21.057129,14.343262,0.947632,-0.125000,0.475098
149.963379,20.324707,15.747070,0.944580,-0.085938,0.473511
149.963379,20.324707,15.747070,0.944580,-0.085938,0.473511
149.963379,20.324707,15.747070,0.935181,-0.032471,0.474365
155.212402,20.019531,16.174316,0.935181,-0.032471,0.474365
155.212402,20.019531,16.174316,0.935181,-0.032471,0.474365
151.672363,20.019531,15.869141,0.920776,0.021240,0.476562
151.672363,20.019531,15.869141,0.920776,0.021240,0.476562
141.845703,20.263672,15.258789,0.908081,0.062378,0.472534
141.845703,20.263672,15.258789,0.908081,0.062378,0.472534
141.845703,20.263672,15.258789,0.908081,0.062378,0.472534
127.990723,20.751953,14.587402,0.897827,0.092896,0.459839
127.990723,20.751953,14.587402,0.897827,0.092896,0.459839
111.572266,21.728516,13.977051,0.888916,0.122559,0.443481
111.572266,21.728516,13.977051,0.888916,0.122559,0.443481
92.346191,22.949219,13.610840,0.874390,0.151001,0.429077
92.346191,22.949219,13.610840,0.874390,0.151001,0.429077
92.346191,22.949219,13.610840,0.874390,0.151001,0.429077
71.044922,24.353027,13.366699,0.848022,0.169556,0.420288
71.044922,24.353027,13.366699,0.848022,0.169556,0.420288
51.208496,25.817871,13.732910,0.816406,0.170288,0.411133
51.208496,25.817871,13.732910,0.816406,0.170288,0.411133
51.208496,25.817871,13.732910,0.785034,0.145874,0.401123
36.987305,27.099609,15.136719,0.785034,0.145874,0.401123
36.987305,27.099609,15.136719,0.785034,0.145874,0.401123
31.372070,27.893066,17.578125,0.757324,0.102417,0.393066
31.372070,27.893066,17.578125,0.757324,0.102417,0.393066
34.973145,28.259277,21.057129,0.739624,0.053345,0.387939
34.973145,28.259277,21.057129,0.739624,0.053345,0.387939
34.973145,28.259277,21.057129,0.739624,0.053345,0.387939
45.776367,28.259277,25.207520,0.733398,0.009888,0.386963
45.776367,28.259277,25.207520,0.733398,0.009888,0.386963
60.607910,28.076172,29.479980,0.733765,-0.020386,0.386597
60.607910,28.076172,29.479980,0.733765,-0.020386,0.386597
76.782227,27.770996,33.569336,0.737183,-0.039185,0.385376
76.782227,27.770996,33.569336,0.737183,-0.039185,0.385376
76.782227,27.770996,33.569336,0.737183,-0.039185,0.385376
93.322754,27.526855,37.536621,0.746460,-0.051270,0.381958
93.322754,27.526855,37.536621,0.746460,-0.051270,0.381958
109.619141,27.282715,41.137695,0.760010,-0.057373,0.377075
109.619141,27.282715,41.137695,0.760010,-0.057373,0.377075
109.619141,27.282715,41.137695,0.778931,-0.056763,0.374023
124.389648,27.160645,44.250488,0.778931,-0.056763,0.374023
124.389648,27.160645,44.250488,0.778931,-0.056763,0.374023
136.047363,27.221680,46.813965,0.805908,-0.048096,0.372192
136.047363,27.221680,46.813965,0.805908,-0.048096,0.372192
143.432617,27.404785,48.645020,0.834106,-0.032349,0.372437
143.432617,27.404785,48.645020,0.834106,-0.032349,0.372437
143.432617,27.404785,48.645020,0.834106,-0.032349,0.372437
146.057129,27.770996,49.865723,0.852173,-0.010254,0.373657
146.057129,27.770996,49.865723,0.852173,-0.010254,0.373657
143.371582,28.259277,50.415039,0.864380,0.017334,0.370728
143.371582,28.259277,50.415039,0.864380,0.017334,0.370728
135.925293,28.930664,50.598145,0.875122,0.041260,0.363525
135.925293,28.930664,50.598145,0.875122,0.041260,0.363525
135.925293,28.930664,50.598145,0.875122,0.041260,0.363525
126.403809,29.724121,50.659180,0.879150,0.055908,0.352539
126.403809,29.724121,50.659180,0.879150,0.055908,0.352539
116.760254,30.517578,50.964355,0.876465,0.066040,0.337402
116.760254,30.517578,50.964355,0.876465,0.066040,0.337402
116.760254,30.517578,50.964355,0.865601,0.079102,0.324219
107.360840,31.372070,51.452637,0.865601,0.079102,0.324219
107.360840,31.372070,51.452637,0.865601,0.079102,0.324219
97.167969,32.104492,52.001953,0.846069,0.093628,0.315674
97.167969,32.104492,52.001953,0.846069,0.093628,0.315674
86.242676,32.836914,52.673340,0.821289,0.106201,0.308960
86.242676,32.836914,52.673340,0.821289,0.106201,0.308960
86.242676,32.836914,52.673340,0.821289,0.106201,0.308960
75.317383,33.325195,53.527832,0.797607,0.120728,0.301270
75.317383,33.325195,53.527832,0.797607,0.120728,0.301270
64.208984,33.630371,54.748535,0.781982,0.135620,0.292847
64.208984,33.630371,54.748535,0.781982,0.135620,0.292847
52.001953,33.874512,55.908203,0.766724,0.147705,0.294434
52.001953,33.874512,55.908203,0.766724,0.147705,0.294434
52.001953,33.874512,55.908203,0.766724,0.147705,0.294434
39.184570,33.691406,57.250977,0.748657,0.150269,0.300049
39.184570,33.691406,57.250977,0.748657,0.150269,0.300049
27.648926,33.203125,58.715820,0.736450,0.134644,0.300659
27.648926,33.203125,58.715820,0.736450,0.134644,0.300659
27.648926,33.203125,58.715820,0.729492,0.100220,0.302490
20.141602,32.226562,60.546875,0.729492,0.100220,0.302490
20.141602,32.226562,60.546875,0.729492,0.100220,0.302490
18.554688,30.517578,62.805176,0.727539,0.051514,0.309326
18.554688,30.517578,62.805176,0.727539,0.051514,0.309326
23.498535,28.320312,65.429688,0.732910,0.001221,0.318970
23.498535,28.320312,65.429688,0.732910,0.001221,0.318970
23.498535,28.320312,65.429688,0.732910,0.001221,0.318970
33.447266,25.695801,68.237305,0.742188,-0.038086,0.325928
33.447266,25.695801,68.237305,0.742188,-0.038086,0.325928
45.654297,22.888184,70.922852,0.754639,-0.063843,0.331909
45.654297,22.888184,70.922852,0.754639,-0.063843,0.331909
56.701660,20.080566,73.120117,0.774170,-0.078125,0.341919
56.701660,20.080566,73.120117,0.774170,-0.078125,0.341919
56.701660,20.080566,73.120117,0.774170,-0.078125,0.341919
64.453125,17.333984,74.584961,0.799561,-0.085205,0.354004
64.453125,17.333984,74.584961,0.799561,-0.085205,0.354004
68.603516,14.587402,75.195312,0.823975,-0.094360,0.363159
68.603516,14.587402,75.195312,0.823975,-0.094360,0.363159
70.617676,11.840820,75.317383,0.848022,-0.110840,0.366943
70.617676,11.840820,75.317383,0.848022,-0.110840,0.366943
70.617676,11.840820,75.317383,0.848022,-0.110840,0.366943
71.960449,9.094238,75.012207,0.867920,-0.128784,0.368286
71.960449,9.094238,75.012207,0.867920,-0.128784,0.368286
74.157715,6.286621,74.645996,0.876221,-0.140991,0.364746
74.157715,6.286621,74.645996,0.876221,-0.140991,0.364746
74.157715,6.286621,74.645996,0.876221,-0.140991,0.364746
77.270508,3.479004,74.340820,0.877319,-0.147583,0.351685
77.270508,3.479004,74.340820,0.877319,-0.147583,0.351685
80.383301,0.915527,74.035645,0.876099,-0.144531,0.337036
80.383301,0.915527,74.035645,0.876099,-0.144531,0.337036
82.153320,-1.525879,73.608398,0.874756,-0.130493,0.328613
82.153320,-1.525879,73.608398,0.874756,-0.130493,0.328613
82.153320,-1.525879,73.608398,0.874756,-0.130493,0.328613
81.481934,-3.845215,72.998047,0.880249,-0.119019,0.328979
81.481934,-3.845215,72.998047,0.880249,-0.119019,0.328979
78.186035,-6.225586,72.021484,0.897461,-0.120850,0.331299
78.186035,-6.225586,72.021484,0.897461,-0.120850,0.331299
73.547363,-8.422852,70.617676,0.914795,-0.133545,0.327515
73.547363,-8.422852,70.617676,0.914795,-0.133545,0.327515
73.547363,-8.422852,70.617676,0.914795,-0.133545,0.327515
69.458008,-10.742188,69.091797,0.925781,-0.152832,0.316040
69.458008,-10.742188,69.091797,0.925781,-0.152832,0.316040
67.199707,-13.000488,67.565918,0.932495,-0.171143,0.300049
67.199707,-13.000488,67.565918,0.932495,-0.171143,0.300049
67.199707,-13.000488,67.565918,0.932495,-0.171143,0.300049
67.138672,-15.258789,66.284180,0.931152,-0.181763,0.285889
67.138672,-15.258789,66.284180,0.931152,-0.181763,0.285889
70.068359,-17.517090,65.368652,0.924072,-0.188477,0.273438
70.068359,-17.517090,65.368652,0.924072,-0.188477,0.273438
76.416016,-19.897461,64.941406,0.913940,-0.193237,0.260498
76.416016,-19.897461,64.941406,0.913940,-0.193237,0.260498
76.416016,-19.897461,64.941406,0.913940,-0.193237,0.260498
84.655762,-22.094727,64.758301,0.897095,-0.190063,0.248047
84.655762,-22.094727,64.758301,0.897095,-0.190063,0.248047
92.956543,-24.169922,64.819336,0.874268,-0.176147,0.233643
92.956543,-24.169922,64.819336,0.874268,-0.176147,0.233643
99.487305,-25.939941,64.819336,0.847656,-0.153809,0.218262
99.487305,-25.939941,64.819336,0.847656,-0.153809,0.218262
99.487305,-25.939941,64.819336,0.847656,-0.153809,0.218262
102.905273,-27.465820,64.514160,0.821777,-0.127930,0.207153
102.905273,-27.465820,64.514160,0.821777,-0.127930,0.207153
102.600098,-28.747559,63.964844,0.816895,-0.114136,0.202759
102.600098,-28.747559,63.964844,0.816895,-0.114136,0.202759
102.600098,-28.747559,63.964844,1.547241,0.002808,0.600220
176.757812,-36.743164,65.612793,1.547241,0.002808,0.600220
176.757812,-36.743164,65.612793,1.547241,0.002808,0.600220
303.955078,-74.157715,-34.301758,0.498291,0.244385,0.621582
303.955078,-74.157715,-34.301758,0.498291,0.244385,0.621582
312.866211,-82.397461,-6.286621,-0.343994,0.732300,0.321655
312.866211,-82.397461,-6.286621,-0.343994,0.732300,0.321655
312.866211,-82.397461,-6.286621,-0.343994,0.732300,0.321655
210.632324,-63.842773,7.080078,0.856689,0.829468,0.509888
210.632324,-63.842773,7.080078,0.856689,0.829468,0.509888
136.840820,-58.044434,3.417969,0.864990,0.288696,0.312500
136.840820,-58.044434,3.417969,0.864990,0.288696,0.312500
99.304199,-60.241699,-3.479004,0.824341,0.064941,0.046875
99.304199,-60.241699,-3.479004,0.824341,0.064941,0.046875
99.304199,-60.241699,-3.479004,0.824341,0.064941,0.046875
61.950684,-58.349609,-6.713867,1.005127,0.166992,0.124634
61.950684,-58.349609,-6.713867,1.005127,0.166992,0.124634
31.494141,-56.457520,-10.314941,0.901733,0.137451,0.118408
31.494141,-56.457520,-10.314941,0.901733,0.137451,0.118408
31.494141,-56.457520,-10.314941,0.915283,0.031616,0.067871
11.474609,-54.504395,-12.390137,0.915283,0.031616,0.067871
11.474609,-54.504395,-12.390137,0.915283,0.031616,0.067871
2.868652,-53.283691,-13.916016,0.938965,-0.006958,0.069702
2.868652,-53.283691,-13.916016,0.938965,-0.006958,0.069702
5.554199,-52.185059,-13.427734,0.907715,-0.000244,0.101196
5.554199,-52.185059,-13.427734,0.907715,-0.000244,0.101196
5.554199,-52.185059,-13.427734,0.907715,-0.000244,0.101196
16.662598,-51.879883,-11.901855,0.927612,0.013794,0.139038
16.662598,-51.879883,-11.901855,0.927612,0.013794,0.139038
32.043457,-51.879883,-9.277344,0.925659,0.013916,0.163574
32.043457,-51.879883,-9.277344,0.925659,0.013916,0.163574
48.645020,-52.185059,-6.530762,0.925537,0.003052,0.163818
48.645020,-52.185059,-6.530762,0.925537,0.003052,0.163818
48.645020,-52.185059,-6.530762,0.925537,0.003052,0.163818
64.147949,-52.429199,-3.906250,0.923096,-0.024658,0.14428
10.864258,45.288086,8.422852,1.007446,-0.136108,0.454956
16.479492,39.611816,7.873535,1.044800,-0.165649,0.465332
16.479492,39.611816,7.873535,1.044800,-0.165649,0.465332
16.479492,39.611816,7.873535,1.044800,-0.165649,0.465332
27.587891,33.569336,7.995605,1.051880,-0.181030,0.470947
27.587891,33.569336,7.995605,1.051880,-0.181030,0.470947
41.809082,27.221680,8.422852,1.050537,-0.174927,0.478638
41.809082,27.221680,8.422852,1.050537,-0.174927,0.478638
41.809082,27.221680,8.422852,1.058350,-0.144653,0.497314
54.748535,20.629883,8.972168,1.058350,-0.144653,0.497314
54.748535,20.629883,8.972168,1.058350,-0.144653,0.497314
60.668945,14.160156,8.911133,1.079102,-0.094482,0.520020
60.668945,14.160156,8.911133,1.079102,-0.094482,0.520020
55.969238,7.934570,7.873535,1.104370,-0.036255,0.542114
55.969238,7.934570,7.873535,1.104370,-0.036255,0.542114
55.969238,7.934570,7.873535,1.104370,-0.036255,0.542114
41.442871,2.136230,6.042480,1.133789,0.009766,0.556274
41.442871,2.136230,6.042480,1.133789,0.009766,0.556274
21.057129,-3.417969,3.662109,1.160278,0.024536,0.552124
21.057129,-3.417969,3.662109,1.160278,0.024536,0.552124
1.464844,-8.483887,1.403809,1.167725,0.014648,0.526978
1.464844,-8.483887,1.403809,1.167725,0.014648,0.526978
1.464844,-8.483887,1.403809,1.167725,0.014648,0.526978
-11.535645,-13.427734,0.000000,1.149170,-0.003174,0.491455
-11.535645,-13.427734,0.000000,1.149170,-0.003174,0.491455
-15.747070,-18.310547,-0.183105,1.111572,-0.017456,0.453247
-15.747070,-18.310547,-0.183105,1.111572,-0.017456,0.453247
-15.747070,-18.310547,-0.183105,1.059692,-0.014282,0.419556
-13.305664,-22.949219,0.671387,1.059692,-0.014282,0.419556
-13.305664,-22.949219,0.671387,1.059692,-0.014282,0.419556
-8.483887,-27.343750,2.075195,0.999146,0.004150,0.390991
-8.483887,-27.343750,2.075195,0.999146,0.004150,0.390991
-4.333496,-31.372070,3.784180,0.936646,0.027588,0.365845
-4.333496,-31.372070,3.784180,0.936646,0.027588,0.365845
-4.333496,-31.372070,3.784180,0.936646,0.027588,0.365845
-1.831055,-35.034180,5.432129,0.879639,0.048340,0.341675
-1.831055,-35.034180,5.432129,0.879639,0.048340,0.341675
-1.159668,-38.330078,6.958008,0.839478,0.060303,0.316040
-1.159668,-38.330078,6.958008,0.839478,0.060303,0.316040
-2.014160,-41.137695,8.361816,0.818481,0.064941,0.290894
-2.014160,-41.137695,8.361816,0.818481,0.064941,0.290894
-2.014160,-41.137695,8.361816,0.818481,0.064941,0.290894
-4.211426,-43.579102,9.399414,0.815674,0.062134,0.267334
-4.211426,-43.579102,9.399414,0.815674,0.062134,0.267334
-7.263184,-45.593262,10.253906,0.831299,0.055420,0.247437
-7.263184,-45.593262,10.253906,0.831299,0.055420,0.247437
-7.263184,-45.593262,10.253906,0.855225,0.052124,0.233276
-10.803223,-47.302246,10.742188,0.855225,0.052124,0.233276
-10.803223,-47.302246,10.742188,0.855225,0.052124,0.233276
-14.831543,-48.767090,11.169434,0.871826,0.052246,0.229980
-14.831543,-48.767090,11.169434,0.871826,0.052246,0.229980
-19.042969,-50.231934,11.413574,0.877563,0.051636,0.234375
-19.042969,-50.231934,11.413574,0.877563,0.051636,0.234375
-19.042969,-50.231934,11.413574,0.877563,0.051636,0.234375
-22.705078,-51.818848,11.718750,0.878540,0.043091,0.238281
-22.705078,-51.818848,11.718750,0.878540,0.043091,0.238281
-24.475098,-53.466797,11.962891,0.884644,0.023071,0.241333
-24.475098,-53.466797,11.962891,0.884644,0.023071,0.241333
-23.498535,-55.297852,12.329102,0.905762,-0.008179,0.240234
-23.498535,-55.297852,12.329102,0.905762,-0.008179,0.240234
-23.498535,-55.297852,12.329102,0.905762,-0.008179,0.240234
-19.653320,-57.006836,12.756348,0.946045,-0.044312,0.230957
-19.653320,-57.006836,12.756348,0.946045,-0.044312,0.230957
-14.038086,-58.471680,12.939453,0.996216,-0.071045,0.220215
-14.038086,-58.471680,12.939453,0.996216,-0.071045,0.220215
-14.038086,-58.471680,12.939453,1.032349,-0.083740,0.221558
-8.728027,-59.692383,12.878418,1.032349,-0.083740,0.221558
-8.728027,-59.692383,12.878418,1.032349,-0.083740,0.221558
-5.371094,-60.852051,12.512207,1.045166,-0.085449,0.232788
-5.371094,-60.852051,12.512207,1.045166,-0.085449,0.232788
-4.516602,-61.889648,11.657715,1.040283,-0.082520,0.247314
-4.516602,-61.889648,11.657715,1.040283,-0.082520,0.247314
-4.516602,-61.889648,11.657715,1.040283,-0.082520,0.247314
-5.493164,-63.110352,10.498047,1.023071,-0.076172,0.253784
-5.493164,-63.110352,10.498047,1.023071,-0.076172,0.253784
-11.169434,-64.086914,9.216309,1.451172,0.086670,0.094482
-11.169434,-64.086914,9.216309,1.451172,0.086670,0.094482
-59.936523,-31.127930,-3.784180,1.401611,0.414062,0.561523
-59.936523,-31.127930,-3.784180,1.401611,0.414062,0.561523
-59.936523,-31.127930,-3.784180,1.401611,0.414062,0.561523
-75.378418,-23.010254,-9.277344,0.252319,0.412842,0.964966
-75.378418,-23.010254,-9.277344,0.252319,0.412842,0.964966
-51.391602,-35.217285,-0.793457,-0.105957,0.077271,0.617798
-51.391602,-35.217285,-0.793457,-0.105957,0.077271,0.617798
-51.391602,-35.217285,-0.793457,0.938477,-0.086304,0.438965
-31.799316,-39.855957,0.549316,0.938477,-0.086304,0.438965
-31.799316,-39.855957,0.549316,0.938477,-0.086304,0.438965
-11.596680,-36.865234,1.098633,1.363892,-0.009521,0.341675
-11.596680,-36.865234,1.098633,1.363892,-0.009521,0.341675
12.695312,-38.330078,5.126953,0.837036,0.078125,0.373169
12.695312,-38.330078,5.126953,0.837036,0.078125,0.373169
12.695312,-38.330078,5.126953,0.837036,0.078125,0.373169
19.165039,-37.963867,7.019043,0.807983,0.066284,0.406128
19.165039,-37.963867,7.019043,0.807983,0.066284,0.406128
15.563965,-37.658691,6.835938,0.958862,0.053223,0.320801
15.563965,-37.658691,6.835938,0.958862,0.053223,0.320801
12.207031,-36.987305,6.958008,0.903809,0.095459,0.310547
12.207031,-36.987305,6.958008,0.903809,0.095459,0.310547
12.207031,-36.987305,6.958008,0.903809,0.095459,0.310547
5.981445,-36.376953,6.652832,0.903198,0.113525,0.351074
5.981445,-36.376953,6.652832,0.903198,0.113525,0.351074
-2.380371,-36.010742,6.164551,0.914185,0.108765,0.379272
-2.380371,-36.010742,6.164551,0.914185,0.108765,0.379272
-2.380371,-36.010742,6.164551,0.902466,0.104858,0.418579
-9.521484,-36.010742,5.737305,0.902466,0.104858,0.418579
-9.521484,-36.010742,5.737305,0.902466,0.104858,0.418579
-13.977051,-36.315918,5.493164,0.900635,0.073120,0.438354
-13.977051,-36.315918,5.493164,0.900635,0.073120,0.438354
-14.892578,-36.865234,5.554199,0.895996,0.034424,0.441162
-14.892578,-36.865234,5.554199,0.895996,0.034424,0.441162
-14.892578,-36.865234,5.554199,0.895996,0.034424,0.441162
-11.596680,-37.658691,6.103516,0.890503,0.005615,0.449219
-11.596680,-37.658691,6.103516,0.890503,0.005615,0.449219
-5.249023,-38.696289,6.958008,0.887939,-0.005737,0.461182
-5.249023,-38.696289,6.958008,0.887939,-0.005737,0.461182
2.624512,-39.916992,8.178711,0.887573,-0.004883,0.474854
2.624512,-39.916992,8.178711,0.887573,-0.004883,0.474854
2.624512,-39.916992,8.178711,0.887573,-0.004883,0.474854
11.108398,-41.198730,9.582520,0.886475,0.004761,0.485718
11.108398,-41.198730,9.582520,0.886475,0.004761,0.485718
19.409180,-42.602539,11.108398,0.884521,0.017334,0.486938
19.409180,-42.602539,11.108398,0.884521,0.017334,0.486938
19.409180,-42.602539,11.108398,0.885864,0.026245,0.476318
26.916504,-44.006348,12.573242,0.885864,0.026245,0.476318
26.916504,-44.006348,12.573242,0.885864,0.026245,0.476318
32.958984,-45.288086,14.038086,0.888306,0.032593,0.455688
32.958984,-45.288086,14.038086,0.888306,0.032593,0.455688
37.414551,-46.325684,15.319824,0.890869,0.037231,0.431885
37.414551,-46.325684,15.319824,0.890869,0.037231,0.431885
37.414551,-46.325684,15.319824,0.890869,0.037231,0.431885
40.161133,-47.241211,16.357422,0.893188,0.041382,0.410522
40.161133,-47.241211,16.357422,0.893188,0.041382,0.410522
41.076660,-48.034668,17.272949,0.894531,0.046265,0.391235
41.076660,-48.034668,17.272949,0.894531,0.046265,0.391235
40.222168,-48.645020,18.005371,0.896973,0.053467,0.370361
40.222168,-48.645020,18.005371,0.896973,0.053467,0.370361
40.222168,-48.645020,18.005371,0.896973,0.053467,0.370361
36.987305,-49.072266,18.310547,0.899780,0.064697,0.349243
36.987305,-49.072266,18.310547,0.899780,0.064697,0.349243
30.944824,-49.377441,18.310547,0.903809,0.074219,0.333496
30.944824,-49.377441,18.310547,0.903809,0.074219,0.333496
30.944824,-49.377441,18.310547,0.903198,0.078003,0.319336
22.399902,-49.621582,17.883301,0.903198,0.078003,0.319336
22.399902,-49.621582,17.883301,0.903198,0.078003,0.319336
12.268066,-49.804688,17.211914,0.903687,0.076050,0.303345
12.268066,-49.804688,17.211914,0.903687,0.076050,0.303345
1.892090,-49.926758,16.357422,0.906494,0.066772,0.289795
1.892090,-49.926758,16.357422,0.906494,0.066772,0.289795
1.892090,-49.926758,16.357422,0.906494,0.066772,0.289795
-6.958008,-50.109863,15.563965,0.906494,0.050537,0.276855
-6.958008,-50.109863,15.563965,0.906494,0.050537,0.276855
-12.939453,-50.292969,15.014648,0.905518,0.031738,0.263916
-12.939453,-50.292969,15.014648,0.905518,0.031738,0.263916
-15.625000,-50.720215,14.831543,0.905640,0.010132,0.250122
-15.625000,-50.720215,14.831543,0.905640,0.010132,0.250122
-15.625000,-50.720215,14.831543,0.905640,0.010132,0.250122
-15.197754,-51.269531,14.953613,0.906860,-0.011719,0.234253
-15.197754,-51.269531,14.953613,0.906860,-0.011719,0.234253
-12.023926,-51.635742,15.441895,0.907715,-0.029663,0.218750
-12.023926,-51.635742,15.441895,0.907715,-0.029663,0.218750
-6.713867,-52.124023,16.174316,0.908081,-0.042480,0.203735
-6.713867,-52.124023,16.174316,0.908081,-0.042480,0.203735
-6.713867,-52.124023,16.174316,0.908081,-0.042480,0.203735
-0.305176,-52.673340,17.089844,0.909424,-0.051880,0.189453
-0.305176,-52.673340,17.089844,0.909424,-0.051880,0.189453
6.591797,-53.161621,18.066406,0.910889,-0.060425,0.174805
6.591797,-53.161621,18.066406,0.910889,-0.060425,0.174805
6.591797,-53.161621,18.066406,0.910889,-0.060425,0.174805
13.183594,-53.527832,19.104004,0.912109,-0.066895,0.158325
13.183594,-53.527832,19.104004,0.912109,-0.066895,0.158325
18.981934,-53.771973,20.019531,0.914185,-0.072144,0.139404
18.981934,-53.771973,20.019531,0.914185,-0.072144,0.139404
23.559570,-53.894043,20.812988,0.917603,-0.077637,0.117798
23.559570,-53.894043,20.812988,0.917603,-0.077637,0.117798
23.559570,-53.894043,20.812988,0.917603,-0.077637,0.117798
26.916504,-53.894043,21.423340,0.920166,-0.083374,0.095947
26.916504,-53.894043,21.423340,0.920166,-0.083374,0.095947
28.930664,-53.771973,21.911621,0.921631,-0.086182,0.076904
28.930664,-53.771973,21.911621,0.921631,-0.086182,0.076904
29.357910,-53.588867,22.216797,0.924316,-0.086060,0.060425
29.357910,-53.588867,22.216797,0.924316,-0.086060,0.060425
29.357910,-53.588867,22.216797,0.924316,-0.086060,0.060425
28.442383,-53.222656,22.216797,0.927002,-0.087402,0.043579
28.442383,-53.222656,22.216797,0.927002,-0.087402,0.043579
26.123047,-52.795410,22.094727,0.929199,-0.088745,0.026367
26.123047,-52.795410,22.094727,0.929199,-0.088745,0.026367
26.123047,-52.795410,22.094727,0.929199,-0.088745,0.026367
22.521973,-52.246094,21.667480,0.931763,-0.090942,0.010376
22.521973,-52.246094,21.667480,0.931763,-0.090942,0.010376
18.249512,-51.757812,21.179199,0.933960,-0.096802,-0.004395
18.249512,-51.757812,21.179199,0.933960,-0.096802,-0.004395
13.916016,-51.208496,20.629883,0.935669,-0.102905,-0.015747
13.916016,-51.208496,20.629883,0.935669,-0.102905,-0.015747
13.916016,-51.208496,20.629883,0.935669,-0.102905,-0.015747
10.009766,-50.598145,20.080566,0.934082,-0.107422,-0.023682
10.009766,-50.598145,20.080566,0.934082,-0.107422,-0.023682
7.080078,-50.170898,19.592285,0.941040,-0.115479,-0.028687
7.080078,-50.170898,19.592285,0.941040,-0.115479,-0.028687
5.798340,-49.743652,19.348145,0.938477,-0.125854,-0.035400
5.798340,-49.743652,19.348145,0.938477,-0.125854,-0.035400
5.798340,-49.743652,19.348145,0.938477,-0.125854,-0.035400
6.408691,-49.499512,19.348145,0.931519,-0.136475,-0.043701
6.408691,-49.499512,19.348145,0.931519,-0.136475,-0.043701
8.911133,-49.255371,19.531250,0.936646,-0.145996,-0.050293
8.911133,-49.255371,19.531250,0.936646,-0.145996,-0.050293
8.911133,-49.255371,19.531250,0.938110,-0.150024,-0.055786
12.817383,-49.072266,19.958496,0.938110,-0.150024,-0.055786
12.817383,-49.072266,19.958496,0.938110,-0.150024,-0.055786
17.517090,-48.889160,20.568848,0.936646,-0.150757,-0.060913
17.517090,-48.889160,20.568848,0.936646,-0.150757,-0.060913
22.338867,-48.828125,21.301270,0.935181,-0.147461,-0.066650
22.338867,-48.828125,21.301270,0.935181,-0.147461,-0.066650
22.338867,-48.828125,21.301270,0.935181,-0.147461,-0.066650
26.672363,-48.706055,22.033691,0.934326,-0.141602,-0.071045
26.672363,-48.706055,22.033691,0.934326,-0.141602,-0.071045
30.395508,-48.583984,22.827148,0.933960,-0.133789,-0.075562
30.395508,-48.583984,22.827148,0.933960,-0.133789,-0.075562
32.958984,-48.400879,23.559570,0.935181,-0.123657,-0.083740
32.958984,-48.400879,23.559570,0.935181,-0.123657,-0.083740
32.958984,-48.400879,23.559570,0.935181,-0.123657,-0.083740
33.935547,-48.156738,24.108887,0.933960,-0.115356,-0.094116
33.935547,-48.156738,24.108887,0.933960,-0.115356,-0.094116
33.142090,-47.851562,24.597168,0.934448,-0.109253,-0.102539
33.142090,-47.851562,24.597168,0.934448,-0.109253,-0.102539
33.142090,-47.851562,24.597168,0.933350,-0.106323,-0.109497
30.578613,-47.424316,24.719238,0.933350,-0.106323,-0.109497
30.578613,-47.424316,24.719238,0.933350,-0.106323,-0.109497
26.672363,-47.058105,24.780273,0.930786,-0.105957,-0.116089
26.672363,-47.058105,24.780273,0.930786,-0.105957,-0.116089
21.850586,-46.630859,24.597168,0.925537,-0.108154,-0.124878
21.850586,-46.630859,24.597168,0.925537,-0.108154,-0.124878
21.850586,-46.630859,24.597168,0.925537,-0.108154,-0.124878
16.784668,-46.142578,24.414062,0.924438,-0.113037,-0.135010
16.784668,-46.142578,24.414062,0.924438,-0.113037,-0.135010
11.840820,-45.715332,24.230957,0.930542,-0.121094,-0.145630
11.840820,-45.715332,24.230957,0.930542,-0.121094,-0.145630
7.568359,-45.349121,23.986816,0.928589,-0.134766,-0.160522
7.568359,-45.349121,23.986816,0.928589,-0.134766,-0.160522
7.568359,-45.349121,23.986816,0.928589,-0.134766,-0.160522
4.089355,-44.860840,23.681641,0.923584,-0.153442,-0.179077
4.089355,-44.860840,23.681641,0.923584,-0.153442,-0.179077
1.342773,-44.311523,23.437500,0.924927,-0.177856,-0.202148
1.342773,-44.311523,23.437500,0.924927,-0.177856,-0.202148
1.342773,-44.311523,23.437500,0.927490,-0.206665,-0.229248
-0.976562,-43.701172,23.071289,0.927490,-0.206665,-0.229248
-0.976562,-43.701172,23.071289,0.927490,-0.206665,-0.229248
-2.746582,-42.968750,22.521973,0.930420,-0.235840,-0.255493
-2.746582,-42.968750,22.521973,0.930420,-0.235840,-0.255493
-4.089355,-42.236328,21.911621,0.933228,-0.260376,-0.279541
-4.089355,-42.236328,21.911621,0.933228,-0.260376,-0.27954
-111.389160,30.639648,-10.437012,1.248169,-0.178589,-0.276245
-116.638184,33.935547,-10.986328,1.286865,-0.171509,-0.259766
-116.638184,33.935547,-10.986328,1.286865,-0.171509,-0.259766
-121.459961,36.926270,-11.230469,1.322998,-0.163818,-0.235229
-121.459961,36.926270,-11.230469,1.322998,-0.163818,-0.235229
-124.511719,39.672852,-10.925293,1.355591,-0.177734,-0.233887
-124.511719,39.672852,-10.925293,1.355591,-0.177734,-0.233887
-124.511719,39.672852,-10.925293,1.355591,-0.177734,-0.233887
-124.023438,41.992188,-10.131836,1.374023,-0.197266,-0.227905
-124.023438,41.992188,-10.131836,1.374023,-0.197266,-0.227905
-119.689941,43.945312,-8.789062,1.383057,-0.209839,-0.221069
-119.689941,43.945312,-8.789062,1.383057,-0.209839,-0.221069
-119.689941,43.945312,-8.789062,1.383057,-0.209839,-0.221069
-113.098145,45.593262,-7.019043,1.383423,-0.207764,-0.214844
-113.098145,45.593262,-7.019043,1.383423,-0.207764,-0.214844
-106.201172,47.058105,-5.187988,1.374634,-0.202881,-0.205688
-106.201172,47.058105,-5.187988,1.374634,-0.202881,-0.205688
-100.463867,48.339844,-3.540039,1.359741,-0.201538,-0.189941
-100.463867,48.339844,-3.540039,1.359741,-0.201538,-0.189941
-100.463867,48.339844,-3.540039,1.359741,-0.201538,-0.189941
-96.130371,49.560547,-2.197266,1.343018,-0.201416,-0.175781
-96.130371,49.560547,-2.197266,1.343018,-0.201416,-0.175781
-93.078613,50.720215,-1.159668,1.329102,-0.199585,-0.164917
-93.078613,50.720215,-1.159668,1.329102,-0.199585,-0.164917
-90.332031,51.879883,-0.183105,1.319702,-0.194580,-0.152466
-90.332031,51.879883,-0.183105,1.319702,-0.194580,-0.152466
-90.332031,51.879883,-0.183105,1.319702,-0.194580,-0.152466
-87.341309,52.978516,0.793457,1.306885,-0.189331,-0.140015
-87.341309,52.978516,0.793457,1.306885,-0.189331,-0.140015
-83.984375,54.016113,1.831055,1.289917,-0.192383,-0.132080
-83.984375,54.016113,1.831055,1.289917,-0.192383,-0.132080
-83.984375,54.016113,1.831055,1.272339,-0.201050,-0.123535
-80.139160,55.114746,2.685547,1.272339,-0.201050,-0.123535
-80.139160,55.114746,2.685547,1.272339,-0.201050,-0.123535
